Folder: xrpostprocessing/xrpostproc/generate_xrd/reference

Note: README.md
# Introduction 
This is a collection of scripts for postprocessing USPEX results when working with X-ray data.
The instructions for using each script are in the file `documentation/documentation.pdf`.

# First use
I suppose that you have Python 3 installed in your system, and that it is accessible through the command `python`.
1.  Unzip the project folder
2.  `python -m venv .venv`
3.  `.venv\Scripts\activate` or for Linux just use `source .venv/bin/activate`
4.  `python -m pip install -r requirements.txt`
5.  Add permanently the project folder to your `PYTHONPATH` environment variable

# Before every use
1.  Go to the project folder
2.  `.venv\Scripts\activate` or for Linux just use `source .venv/bin/activate`

File: 1_-0.0027_0072576_Sr_50gpa_194.txt
13.27     24.32
15.26     22.43
15.31    100.00
20.27     15.30
23.08     21.03
26.62     20.57
26.71      3.39
27.79     24.00
27.82     17.94
30.80      2.88
30.91      4.26
33.66      3.20
35.52      7.97
35.59      2.64
36.45     14.55
38.84      7.74
38.93      3.84
40.55      3.31
41.15      4.71
41.21      1.56
42.79      8.18
43.56      5.11
46.94      0.65
47.17      1.92
47.70      2.77
47.76      1.84
49.00      0.84
49.22      0.82
49.87      3.15
49.89      4.72
51.77      2.76
51.84      1.37
52.94      2.55
53.64      3.65
54.83      0.56
54.98      3.34
55.04      0.28
55.65      1.60
57.21      1.45
57.40      1.91
57.47      0.48
59.20      0.86

File: 2_-0.001_0072592_Sr_50gpa_194.txt
13.10     24.73
15.22    100.00
15.47     21.27
20.32     14.95
22.78     21.48
26.37      3.47
26.81     19.79
27.51     18.26
27.65     23.96
30.71      4.28
31.23      2.70
33.99      3.04
35.12      2.72
35.46      7.88
36.01     14.93
38.58      3.90
39.00      7.49
40.01      3.42
41.31      1.52
41.61      4.45
42.57      8.20
43.14      5.21
46.53      1.98
47.62      0.61
47.69      1.82
47.96      2.67
48.55      0.85
49.24      4.86
49.33      3.22
49.61      0.79
51.27      1.40
51.61      2.74
53.41      2.43
53.73      3.57
54.28      0.29
54.52      3.39
54.91      1.65
55.25      0.54
56.79      0.49
57.11      1.92
57.97      1.36
58.87      0.86
59.61      0.41
59.84      1.22

File: 3_-0.0008_0072594_Sr_50gpa_11.txt
11.33      0.00
12.38      0.17
13.30     20.17
14.06      0.36
14.56      0.69
15.22     89.77
16.02      0.70
16.95      0.59
17.99      0.03
19.12      0.02
19.73      0.10
20.22     14.38
20.84      0.12
21.59      0.25
22.40      0.08
22.93      0.00
23.05     19.39
23.33      0.30
24.05      0.03
24.29      0.05
24.34      0.10
24.58      0.00
24.98      0.06
25.48      0.24
25.73      0.02
26.05      0.17
26.23      0.38
26.57      0.15
26.78      4.17
27.09      0.15
27.36      0.06
27.59      0.04
27.66      0.14
27.78     22.02
28.33      0.04
28.37      0.11
28.67      0.01
29.04      0.21
29.16      0.00
29.38      0.00
29.99      0.31
30.35      0.18
30.71      2.66
30.81      0.01
31.48      0.09
31.65      0.01
31.72      0.02
32.36      0.05
32.61      0.01
32.81      0.02
33.01      0.02
33.16      0.03
33.29      0.00
33.69      2.98
33.75      2.65
33.90      0.01
34.07      0.05
34.18      0.29
34.54      0.06
34.74      0.35
34.87      0.08
35.05      0.01
35.13      0.77
35.34      0.27
35.43      1.24
35.51      0.59
35.61      0.77
35.71      0.09
35.97      0.04
36.06      0.43
36.37      0.05
36.44      0.07
36.48      0.11
36.81      0.37
37.08      0.08
37.27      0.00
37.45      0.01
37.62      0.21
37.75      0.15
37.99      0.08
38.10      0.04
38.25      0.13
38.52      1.12
38.58      0.01
38.76      0.01
38.86      0.03
38.88      7.06
38.97      0.16
39.28      0.24
39.30      0.01
39.51      0.00
39.74      0.08
39.83      0.03
40.07      0.10
40.09      0.00
40.33      0.12
40.51      0.00
40.55      0.11
40.65      0.02
40.94      0.05
41.02      0.01
41.11      1.25
41.32      1.92
41.40      0.00
41.53      0.02
41.65      0.38
41.79      0.01
41.85      0.15
41.93      0.04
42.06      0.19
42.18      0.53
42.40      0.60
42.43      2.84
42.66      0.06
42.75      0.35
42.84      4.21
43.08      0.00
43.13      0.21
43.21      3.37
43.59      0.08
43.82      0.01
44.00      0.10
44.08      0.04
44.13      0.01
44.27      0.02
44.73      0.00
44.80      0.01
45.01      0.26
45.29      0.04
45.33      0.01
45.54      0.10
45.67      0.01
45.73      0.05
45.83      0.01
46.04      0.00
46.28      0.03
46.46      0.05
46.51      0.00
46.56      0.01
46.68      0.01
46.82      0.11
46.90      0.00
47.05      0.10
47.07      1.86
47.15      0.03
47.22      0.01
47.23      0.05
47.34      0.01
47.46      0.53
47.54      0.00
47.62      0.00
47.67      0.06
47.70      0.05
47.75      0.02
47.83      2.39
48.03      0.10
48.11      0.10
48.19      0.15
48.32      0.04
48.38      0.19
48.52      0.01
48.60      0.12
48.70      0.01
48.76      0.08
48.80      0.12
48.93      0.24
49.09      1.64
49.20      0.06
49.27      1.36
49.36      0.00
49.38      0.22
49.54      0.18
49.60      1.62
49.74      0.01
49.81      0.01
49.87      0.07
50.04      0.04
50.14      0.20
50.22      0.01
50.28      0.00
50.36      0.00
50.39      0.02
50.40      0.00
50.79      0.18
50.88      0.02
50.96      0.04
51.08      0.00
51.25      0.41
51.41      0.06
51.50      1.80
51.57      0.24
51.73      0.01
51.79      0.09
51.88      0.01
51.93      0.02
52.21      0.01
52.34      0.01
52.47      0.12
52.56      0.01
52.65      0.01
52.70      0.02
52.81      0.02
52.88      0.08
52.94      0.10
53.01      0.05
53.04      2.33
53.08      0.17
53.18      0.23
53.33      0.14
53.39      1.25
53.46      0.02
53.55      0.10
53.58      0.02
53.60      1.27
53.64      0.01
53.67      0.00
53.78      0.02
53.98      0.04
53.99      0.00
54.20      0.01
54.36      0.01
54.44      0.95
54.51      0.00
54.58      0.06
54.74      1.14
54.81      0.34
54.86      0.04
54.94      0.05
55.08      1.30
55.18      0.14
55.30      0.00
55.31      0.00
55.43      0.01
55.49      0.17
55.75      0.00
55.86      0.01
55.88      0.00
56.00      0.01
56.05      0.08
56.07      0.01
56.20      0.02
56.36      0.00
56.47      0.04
56.74      0.01
56.83      0.04
56.91      0.35
56.97      0.01
57.07      0.09
57.14      0.11
57.17      0.11
57.33      2.59
57.38      1.52
57.49      0.01
57.53      0.04
57.59      0.02
57.70      0.01
57.79      0.00
57.83      0.00
57.88      0.16
57.91      0.05
58.17      0.00
58.27      0.00
58.27      0.00
58.41      0.01
58.60      0.01
58.63      0.05
58.70      0.00
58.77      0.08
58.98      0.24
59.08      0.00
59.22      0.02
59.29      0.06
59.31      0.57
59.36      0.02
59.41      0.00
59.60      0.11
59.70      0.01
59.76      0.04
59.78      0.05
59.87      0.03
59.92      0.61
60.00      0.33

File: 4_-0.0006_0072596_Sr_50gpa_194.txt
13.26     24.46
15.34    100.00
15.38     22.06
20.37     15.18
23.08     21.14
26.71      3.41
26.78     20.29
27.83     18.01
27.85     23.95
30.97      4.26
31.05      2.81
33.90      3.14
35.59      2.65
35.64      7.91
36.46     14.61
38.98      3.84
39.05      7.63
40.55      3.33
41.41      1.54
41.46      4.61
42.89      8.15
43.61      5.12
47.17      1.93
47.35      0.64
47.94      1.82
47.98      2.72
49.22      0.83
49.39      0.82
49.89      4.74
49.91      3.16
51.88      1.38
51.93      2.74
53.31      2.50
53.89      3.61
55.03      0.28
55.07      3.34
55.19      0.55
55.66      1.61
57.50      0.48
57.55      1.91
57.70      1.42
59.35      0.85