Folder: xrpostprocessing/xrpostproc/pareto_picture

Note: xrpostproc/pareto_picture/subtracted_KTaWO6_0GPa.txt
10	27.94484
10.02	23.83936
10.04	-0.26615
10.06	-4.37167
10.08	37.52281
10.1	13.41727
10.12	19.31172
10.14	7.20617
10.16	17.10061
10.18	-11.00495
10.2	10.88948
10.22	-11.21608
10.24	0.67835
10.26	-1.42721
10.28	10.46723
10.3	-3.63832
10.32	4.25613
10.34	-1.8494
10.36	18.04507
10.38	9.93955
10.4	15.83405
10.42	-8.27144
10.44	9.62309
10.46	-8.48236
10.48	-10.5878
10.5	21.30679
10.52	1.2014
10.54	5.09603
10.56	2.99069
10.58	12.88537
10.6	10.78008
10.62	2.67483
10.64	-1.4304
10.66	2.46441
10.68	10.35925
10.7	-3.74587
10.72	-23.85095
10.74	2.04401
10.76	9.939
10.78	5.83404
10.8	3.72912
10.82	-16.37575
10.84	-2.48057
10.86	1.41465
10.88	19.30993
10.9	-2.79475
10.92	27.10063
10.94	8.99607
10.96	-1.10844
10.98	-5.2129
11	4.68271
11.02	-7.42162
11.04	12.47411
11.06	4.3699
11.08	24.26576
11.1	2.16169
11.12	6.05768
11.14	-8.04625
11.16	-4.15012
11.18	-22.25391
11.2	3.64238
11.22	-6.46126
11.24	-0.56482
11.26	3.3317
11.28	7.22829
11.3	-8.87502
11.32	1.02174
11.34	2.91859
11.36	-1.18447
11.38	10.71255
11.4	-9.39033
11.42	-11.49312
11.44	-7.59582
11.46	-13.69843
11.48	2.19907
11.5	28.09665
11.52	11.99434
11.54	-8.10787
11.56	5.79002
11.58	-14.31198
11.6	9.58612
11.62	-2.51567
11.64	-6.61735
11.66	3.28107
11.68	35.17961
11.7	-18.92174
11.72	0.97703
11.74	0.87591
11.76	-7.22509
11.78	-1.32597
11.8	6.57327
11.82	2.47264
11.84	4.37212
11.86	-1.72826
11.88	6.17147
11.9	-9.92866
11.92	7.97134
11.94	-8.12853
11.96	-0.22827
11.98	7.67213
12	9.57266
12.02	5.47333
12.04	3.37414
12.06	-14.7249
12.08	-6.82381
12.1	-0.92257
12.12	8.97881
12.14	-11.11966
12.16	-17.21798
12.18	0.68385
12.2	8.58583
12.22	-1.51204
12.24	10.39025
12.26	-13.7073
12.28	6.1953
12.3	0.09806
12.32	-13.99902
12.34	13.90407
12.36	-8.19268
12.38	-4.28927
12.4	-6.38569
12.42	-6.48194
12.44	-14.57802
12.46	-28.67393
12.48	-6.76966
12.5	-6.86522
12.52	7.03939
12.54	2.94418
12.56	-7.15084
12.58	16.75431
12.6	12.65965
12.62	6.56517
12.64	-23.52913
12.66	-9.62324
12.68	4.28284
12.7	-1.81088
12.72	-9.90442
12.74	10.00223
12.76	3.90908
12.78	-10.18387
12.8	1.72338
12.82	-26.36918
12.84	-16.46154
12.86	-0.55369
12.88	5.35436
12.9	9.26262
12.92	-2.82892
12.94	3.07975
12.96	-11.01137
12.98	-15.10227
13	-7.19296
13.02	20.71656
13.04	-5.37371
13.06	-1.46375
13.08	-7.55358
13.1	-9.64318
13.12	-9.73256
13.14	0.17828
13.16	2.08935
13.18	-13.99936
13.2	-10.08783
13.22	-18.17608
13.24	9.7359
13.26	1.64812
13.28	-8.43943
13.3	-0.52674
13.32	-8.61381
13.34	-2.70064
13.36	7.21276
13.38	1.12641
13.4	-10.9597
13.42	-1.04556
13.44	-7.13117
13.46	-11.21654
13.48	4.69835
13.5	-1.38652
13.52	-9.47113
13.54	-17.55548
13.56	8.36042
13.58	-9.72343
13.6	-9.80701
13.62	-1.89033
13.64	-9.97339
13.66	1.94381
13.68	5.86128
13.7	11.77902
13.72	13.69703
13.74	1.6153
13.76	-18.46615
13.78	-4.54733
13.8	11.37176
13.82	9.29114
13.84	1.21078
13.86	5.130

Note: xrpostproc/pareto_picture/subtracted_KTaWO6_4GPa.txt
10	0
10.02	-15.89189
10.04	-5.78378
10.06	-15.67568
10.08	-21.56757
10.1	-11.45946
10.12	-11.35135
10.14	-1.24324
10.16	-19.13514
10.18	-15.02703
10.2	-14.91892
10.22	-18.81081
10.24	7.2973
10.26	-22.59459
10.28	-14.48649
10.3	-12.37838
10.32	-6.27027
10.34	-10.16216
10.36	5.94595
10.38	-7.94595
10.4	-11.83784
10.42	-19.72973
10.44	-17.62162
10.46	-1.51351
10.48	-5.40541
10.5	-21.2973
10.52	-9.18919
10.54	0.91892
10.56	-10.97297
10.58	-14.86486
10.6	-16.75676
10.62	-8.64865
10.64	-18.54054
10.66	-2.43243
10.68	-10.32432
10.7	-18.21622
10.72	-8.10811
10.74	4
10.76	-11.89189
10.78	-15.78378
10.8	8.32432
10.82	-7.56757
10.84	-3.45946
10.86	18.64865
10.88	-19.24324
10.9	-3.13514
10.92	-19.02703
10.94	-14.91892
10.96	-18.81081
10.98	-2.7027
11	-18.59459
11.02	-4.48649
11.04	-18.37838
11.06	-6.27027
11.08	-10.16216
11.1	-6.05405
11.12	-19.94595
11.14	-1.83784
11.16	-9.72973
11.18	-23.62162
11.2	-9.51351
11.22	-1.40541
11.24	-5.2973
11.26	-5.18919
11.28	-13.08108
11.3	25.02703
11.32	-24.86486
11.34	-12.75676
11.36	-0.64865
11.38	1.45946
11.4	-6.43243
11.42	13.67568
11.44	15.78378
11.46	9.89189
11.48	4
11.5	12.10811
11.52	10.21622
11.54	-7.67568
11.56	-15.56757
11.58	-3.45946
11.6	-7.35135
11.62	-19.24324
11.64	-7.13514
11.66	-1.02703
11.68	-6.91892
11.7	5.18919
11.72	-10.7027
11.74	-16.59459
11.76	-12.48649
11.78	-8.37838
11.8	9.72973
11.82	-10.16216
11.84	-28.05405
11.86	6.05405
11.88	-1.83784
11.9	6.27027
11.92	6.37838
11.94	0.48649
11.96	-5.40541
11.98	-15.2973
12	-1.18919
12.02	4.91892
12.04	17.02703
12.06	5.13514
12.08	-4.75676
12.1	7.35135
12.12	7.45946
12.14	5.56757
12.16	-14.32432
12.18	1.78378
12.2	-10.10811
12.22	0
12.24	18.03509
12.26	-11.92982
12.28	-15.89474
12.3	8.14035
12.32	-1.82456
12.34	-5.78947
12.36	-1.75439
12.38	-3.7193
12.4	0.31579
12.42	-1.64912
12.44	8.38596
12.46	-3.57895
12.48	-13.54386
12.5	-3.50877
12.52	6.52632
12.54	8.5614
12.56	0.59649
12.58	6.63158
12.6	12.66667
12.62	24.70175
12.64	-5.26316
12.66	-3.22807
12.68	16.80702
12.7	8.84211
12.72	10.87719
12.74	-13.08772
12.76	14.94737
12.78	6.98246
12.8	-8.98246
12.82	-0.94737
12.84	-0.91228
12.86	5.12281
12.88	3.15789
12.9	-4.80702
12.92	3.22807
12.94	19.26316
12.96	-8.70175
12.98	15.33333
13	-4.63158
13.02	-2.59649
13.04	11.4386
13.06	1.47368
13.08	-8.49123
13.1	-4.45614
13.12	-2.42105
13.14	9.61404
13.16	-4.35088
13.18	-6.31579
13.2	-8.2807
13.22	3.75439
13.24	-0.21053
13.26	3.82456
13.28	1.85965
13.3	9.89474
13.32	-10.07018
13.34	5.96491
13.36	2
13.38	14.03509
13.4	-1.92982
13.42	-3.89474
13.44	2.14035
13.46	4.17544
13.48	-1.78947
13.5	12.24561
13.52	0.2807
13.54	8.31579
13.56	26.35088
13.58	-7.61404
13.6	-1.57895
13.62	20.45614
13.64	0.49123
13.66	14.52632
13.68	28.5614
13.7	6.59649
13.72	0.63158
13.74	18.66667
13.76	8.70175
13.78	10.73684
13.8	-7.22807
13.82	6.80702
13.84	16.84211


Note: README.md
# Introduction 
This is a collection of scripts for postprocessing USPEX results when working with X-ray data.
The instructions for using each script are in the file `documentation/documentation.pdf`.

# First use
I suppose that you have Python 3 installed in your system, and that it is accessible through the command `python`.
1.  Unzip the project folder
2.  `python -m venv .venv`
3.  `.venv\Scripts\activate` or for Linux just use `source .venv/bin/activate`
4.  `python -m pip install -r requirements.txt`
5.  Add permanently the project folder to your `PYTHONPATH` environment variable

# Before every use
1.  Go to the project folder
2.  `.venv\Scripts\activate` or for Linux just use `source .venv/bin/activate`

File: XRD_135gpa_pure_BaH12.txt
4.94906	0.804769
5.01571	1.69752
5.08236	0.973896
5.14902	3.16526
5.21567	4.01877
5.28232	3.45148
5.34898	4.03378
5.41563	8.07486
5.48229	7.87105
5.54894	6.52522
5.61559	6.75929
5.68225	8.80629
5.7489	7.35514
5.81556	4.84602
5.88221	4.01195
5.94886	6.00132
6.01552	5.11698
6.08217	4.81959
6.14883	6.11603
6.21548	5.37882
6.28213	3.87856
6.34879	5.08061
6.41544	8.41936
6.4821	7.59527
6.54875	5.75595
6.6154	3.32344
6.68206	7.7255
6.74871	5.2247
6.81537	4.84653
6.88202	1.8624
6.94867	4.80964
7.01533	3.64674
7.08198	2.68148
7.14864	3.20983
7.21529	4.6608
7.28194	1.83558
7.3486	0.39106
7.41525	-0.00321066
7.48191	4.51315
7.54856	2.76529
7.61521	2.28126
7.68187	1.85461
7.74852	2.4494
7.81517	2.27683
7.88183	1.04194
7.94848	1.55297
8.01514	-0.114141
8.08179	1.44081
8.14844	0.904474
8.2151	-0.0646342
8.28175	0.315659
8.34841	0.929959
8.41506	1.33301
8.48171	0.135447
8.54837	2.88411
8.61502	6.71842
8.68168	2.88411
8.74833	3.26292
8.81498	3.26292
8.88164	3.29705
8.94829	7.71868
9.01495	4.09974
9.0816	11.3839
9.14825	30.5202
9.21491	12.5306
9.28156	5.44453
9.34822	1.68962
9.41487	3.57337
9.48152	2.15048
9.54818	1.06354
9.61483	-0.512247
9.68149	-0.371875
9.74814	4.97604
9.81479	4.7981
9.88145	6.11855
9.9481	3.02612
10.0148	5.31673
10.0814	4.7981
10.1481	3.24719
10.2147	5.17265
10.2814	2.88736
10.348	2.98947
10.4147	0.5268
10.4813	1.9421
10.548	1.83701
10.6146	1.73268
10.6813	2.10521
10.7479	1.31226
10.8146	0.83038
10.8813	6.73123
10.9479	11.9489
11.0146	24.1744
11.0812	86.4695
11.1479	508.035
11.2145	634.775
11.2812	120.417
11.3478	40.4094
11.4145	17.8413
11.4811	9.10072
11.5478	6.83815
11.6144	10.7127
11.6811	2.94825
11.7478	2.03038
11.8144	3.11579
11.8811	2.84563
11.9477	4.67031
12.0144	3.48321
12.081	3.48321
12.1477	0.0172618
12.2143	1.42111
12.281	1.78613
12.3476	11.709
12.4143	2.4562
12.481	4.62181
12.5476	2.4562
12.6143	4.62181
12.6809	17.7449
12.7476	27.8086
12.8142	89.7566
12.8809	219.387
12.9475	487.142
13.0142	218.745
13.0808	24.762
13.1475	6.80261
13.2141	4.75026
13.2808	4.8279
13.3475	7.375597
13.4141	8.70888
13.48076	4.75963
13.5474	2.2445
13.6141	0.619292
13.6807	2.02681
13.7474	0.253393
13.814	0.319649
13.8807	1.51782
13.9473	3.36007
14.014	6.25274
14.0806	7.49456
14.1473	6.40989
14.214	2.87268
14.2806	4.01851
14.3473	10.3036
14.4139	20.246
14.4806	10.4706
14.5472	2.10426
14.6139	-0.00172952
14.6805	2.87235
14.7472	3.11843
14.8138	2.45249
14.8805	4.15507
14.9471	2.3034
15.0138	2.93992
15.0805	3.83051
15.1471	2.87169
15.2138	4.41643
15.2804	6.3388
15.3471	7.6379
15.4137	8.461
15.4804	11.3555
15.547	11.2302
15.6137	11.8201
15.6803	13.1389
15.747	15.3566
15.8136	17.7379
15.8803	19.8186
15.947	26.685
16.0136	31.5058
16.0803	24.8347
16.1469	16.6111
16.2136	11.1994
16.2802	12.0045
16.3469	11.8361
16.4135	11.0896
16.4802	10.6898
16.5468	9.05313
16.6135	10.4839
16.6801	10.3835
16.7468	11.6479
16.8135	12.3874
16.8801	12.9902
16.9468	13.2086
17.0134	11.0878
17.0801	11.8808
17.1467	12.2075
17.2134	13.294
17.28	13.7048
17.3467	13.5254
17.4133	10.3794
17.48	11.39
17.5467	11.8808
17.6133	13.2461
17.68	10.7313
17.7466	12.0122
17.8133	12.4185
17.8799	11.2829
17.9466	9.64975
18.0132	7.80533
18.0799	9.6797
18.1465	16.5725
18.2132	60.4221
18.2798	152.025
18.3465	71.9362
18.4132	28.2193
18.4798	15.2567
18.5465	8.7985
18.6131	6.70212
18.6798	6.31416
18.7464	7.98021
18.8131	5.99779
18.8797	2.98672
18.9464	2.3321
19.013	1.25735
19.0797	2.45146
19.1463	0.789261
19.213	-0.302927
19.2797	0.326637
19.3463	2.17082
19.413	8.6703
19.4796	9.20086
19.5463	6.27345
19.6129	5.12077
19.6796	3.63336
19.7462	2.21953
19.8129	0.304708
19.8795	1.73694
19.9462	0.710602
20.0128	1.87422
20.0795	2.86839
20.1462	2.26034
20.2128	2.64613
20.2795	0.691787
20.3461	1.91009
20.4128	10.9169
20.4794	2.97502
20.5461	3.52822
20.6127	1.31989
20.6794	-0.482443
20.746	0.323397
20.8127	-0.871798
20.8793	0.481051
20.946	3.09454
21.0127	2.61097
21.0793	-0.351979
21.146	1.97445
21.2126	7.58905
21.2793	18.3715
21.3459	123.985
21.4126	184.1
21.4792	223.807
21.5459	140.147
21.6125	50.201
21.6792	3.75805
21.7458	-2.65263
21.8125	1.54979
21.8569	3.51152