Folder: xrpostprocessing/xrpostproc/powder_xrd_screening

Note: README.md
# Introduction 
This is a collection of scripts for postprocessing USPEX results when working with X-ray data.
The instructions for using each script are in the file `documentation/documentation.pdf`.

# First use
I suppose that you have Python 3 installed in your system, and that it is accessible through the command `python`.
1.  Unzip the project folder
2.  `python -m venv .venv`
3.  `.venv\Scripts\activate` or for Linux just use `source .venv/bin/activate`
4.  `python -m pip install -r requirements.txt`
5.  Add permanently the project folder to your `PYTHONPATH` environment variable

# Before every use
1.  Go to the project folder
2.  `.venv\Scripts\activate` or for Linux just use `source .venv/bin/activate`

File: extended_convex_hull_POSCARS.txt
EA2595  6.844  7.416  7.484 84.99 64.98 93.42 Sym.group:  194
1.0
    6.843021     0.000939     0.120119
   -0.441553     7.402772    -0.085351
    3.047025     0.915174     6.773949
  Ba
  20
Direct
    0.479107     0.831816     0.125904
    0.279113     0.131819     0.025907
    0.680163     0.198323     0.058294
    0.080172     0.098327     0.758286
    0.079113     0.931815     0.425915
    0.479115     0.331815     0.625910
    0.280168     0.798321     0.858289
    0.480178     0.498328     0.958283
    0.279117     0.631815     0.525908
    0.679113     0.531816     0.225917
    0.079114     0.431820     0.925899
    0.680176     0.698331     0.558277
    0.679113     0.031816     0.725902
    0.280167     0.298329     0.358282
    0.480164     0.998324     0.458282
    0.080165     0.598324     0.258286
    0.879114     0.731817     0.825911
    0.880165     0.898330     0.158283
    0.880162     0.398319     0.658289
    0.879122     0.231818     0.325904
EA5756  5.849  5.849  2.828 90.00 90.00 60.00 Sym.group:  191
1.0
    5.848983     0.013625    -0.023629
    2.912602     5.072424    -0.033439
    0.011313     0.012047     2.827725
  Ba   H
   4   8
Direct
    0.808029     0.948360     0.352821
    0.307997     0.448335     0.352835
    0.308054     0.948360     0.352840
    0.807988     0.448327     0.352835
    0.974642     0.615010     0.852777
    0.641418     0.781661     0.852801
    0.141405     0.781697     0.852824
    0.141317     0.281684     0.852834
    0.474739     0.115027     0.852822
    0.974752     0.114993     0.852804
    0.641309     0.281679     0.852780
    0.474648     0.615015     0.852833
EA5785  4.286  4.163  4.286 74.64 91.91 105.38 Sym.group:   65
1.0
    4.286081     0.033132    -0.047955
   -1.134869     4.005384     0.004750
   -0.105209     1.145136     4.129159
  Ba   H
   2  20
Direct
    0.978614     0.978426     0.886457
    0.478578     0.978351     0.386464
    0.935585     0.362216     0.429647
    0.243918     0.595761     0.121042
    0.021473     0.150184     0.343736
    0.396478     0.394172     0.595765
    0.935762     0.806603     0.429204
    0.435774     0.806635     0.929174
    0.743965     0.595803     0.620971
    0.521452     0.150153     0.843760
    0.713331     0.361035     0.651909
    0.521618     0.594578     0.843309
    0.687727     0.562895     0.304042
    0.269487     0.393896     0.468900
    0.896377     0.394167     0.095744
    0.435601     0.362206     0.929617
    0.187741     0.562909     0.804097
    0.060843     0.562609     0.677197
    0.213261     0.360990     0.151965
    0.021642     0.594575     0.343303
    0.769497     0.393874     0.968836
    0.560737     0.562623     0.177173
EA9003  3.935  3.152  3.935 66.68 106.40 113.32 Sym.group:   71
1.0
    2.746916    -2.814542     0.118650
    1.200769     2.914537    -0.039140
    0.021299     1.723192     3.537188
  Ba   H
   1  12
Direct
    0.999088     0.488748     0.003857
    0.558451     0.837793     0.866364
    0.439637     0.140149     0.140305
    0.861270     0.139564     0.563127
    0.135123     0.837191     0.444282
    0.092805     0.225503     0.616544
    0.903614     0.751131     0.391015
    0.611743     0.751760     0.097846
    0.386228     0.226094     0.908761
    0.422769     0.168208     0.579061
    0.576138     0.318308     0.425742
    0.573883     0.808447     0.427983
    0.420649     0.658767     0.581202
EA9220  3.847  4.238  3.847 89.43 113.55 89.43 Sym.group:   44
1.0
    3.795727    -0.380693     0.500302
    0.442817     4.211535     0.171672
   -1.981428     0.112707     3.296124
  Ba   H
   2  12
Direct
    0.278687     0.100378     0.917824
    0.778627     0.600400     0.417793
    0.792534     0.327334     0.948991
    0.629144     0.116318     0.535109
    0.395791     0.616421     0.768262
    0.810063     0.827160     0.931818
    0.204678     0.473080     0.241923
    0.102600     0.973182     0.343770
    0.310023     0.327196     0.431801
    0.704695     0.973037     0.741965
    0.292566     0.827295     0.449044
    0.602544     0.473228     0.843733
    0.895827     0.116407     0.268248
    0.129163     0.616330     0.035070
EA9269  3.613  4.471  4.479 80.75 66.47 66.24 Sym.group:   12
1.0
    3.611688    -0.012397    -0.076230
    1.814603     4.085968    -0.077234
    1.874046     0.032363     4.067551
  Ba   H
   1  23
Direct
    0.561504     0.686570     0.184914
    0.012777     0.296090     0.832171
    0.082212     0.494748     0.528840
    0.626842     0.073506     0.829628
    0.610943     0.595825     0.684310
    0.231534     0.497988     0.837622
    0.585522     0.171330     0.263814
    0.537446     0.201827     0.106070
    0.321200     0.070878     0.556997
    0.061483     0.686555     0.684938
    0.055453     0.173148     0.103815
    0.511992     0.777332     0.685585
    0.040729     0.878386     0.841011
    0.843000     0.922588     0.371755
    0.110256     0.077011     0.537759
    0.043166     0.921967     0.001818
    0.416862     0.073057     0.814139
    0.706190     0.300053     0.555764
    0.067528     0.199974     0.266122
    0.801768     0.302335     0.812903
    0.496143     0.299657     0.540254
    0.891411     0.875142     0.532229
    0.079825     0.451193     0.368006
    0.279991     0.450553     0.998107
EA9719  3.092  3.119  3.303 62.19 117.90 119.70 Sym.group:   15
1.0
    3.091426    -0.040269     0.009843
   -1.509894     2.728837     0.022618
   -1.542906     0.884652     2.783335
   H
  12
Direct
    0.180322     0.838084     0.004717
    0.010303     0.859076     0.498170
    0.234989     0.339308     0.504765
    0.659007     0.122347     0.976447
    0.675674     0.360167     0.997962
    0.767386     0.621931     0.475427
    0.405517     0.554305     0.033699
    0.993081     0.338799     0.504631
    0.160972     0.318188     0.011548
    0.939885     0.840284     0.005119
    0.513116     0.055051     0.535283
    0.497466     0.819220     0.511287
EA7006  3.826  3.568  5.072 69.43 80.57 62.21 Sym.group:   70
1.0
    2.171562     3.149904     0.024454
   -1.654606     3.161621     0.013328
   -0.840156     1.551799     4.755363
  Ba   H
   2  12
Direct
    0.212722     0.806392     0.731606
    0.716387     0.054779     0.231616
    0.083816     0.388436     0.141240
    0.577847     0.191740     0.642025
    0.215057     0.433743     0.473165
    0.084070     0.353841     0.322082
    0.714199     0.684307     0.973125
    0.578110     0.055666     0.821327
    0.845353     0.472818     0.821981
    0.714093     0.427517     0.490055
    0.214968     0.176948     0.990102
    0.845082     0.507409     0.641127
    0.351303     0.669514     0.321192
    0.351055     0.805566     0.141923
EA3575  5.878  5.879  2.839 90.00 90.00 60.00 Sym.group:  191
1.0
    2.950090     5.084451    -0.037932
   -2.928716     5.097045    -0.006200
    0.015379     0.012309     2.838433
  Ba   H
   4   8
Direct
    0.950479     0.242235     0.353372
    0.450531     0.242179     0.353327
    0.950525     0.742175     0.353342
    0.450472     0.742243     0.353282
    0.117145     0.408881     0.853260
    0.283849     0.575518     0.853256
    0.283751     0.075609     0.853250
    0.783844     0.575468     0.853307
    0.617024     0.408987     0.853256
    0.617271     0.908789     0.853307
    0.783814     0.075582     0.853280
    0.117043     0.908990     0.853341
EA2988  3.935  3.137  3.890 67.24 90.50 66.91 Sym.group:   71
1.0
    3.932800     0.134692    -0.017629
    1.132563     2.910000     0.299103
   -0.060811     1.268118     3.676593
  Ba   H
   1  12
Direct
    0.998970     0.388200     0.452358
    0.577047     0.131680     0.881248
    0.584787     0.632187     0.886446
    0.415950     0.145502     0.020881
    0.614570     0.038314     0.544581
    0.421605     0.645906     0.022313
    0.448933     0.596445     0.593242
    0.099988     0.024609     0.070309
    0.549231     0.177197     0.312931
    0.136241     0.599742     0.899269
    0.899026     0.748907     0.835179
    0.863566     0.171304     0.005447
    0.381364     0.740033     0.362075
EA2756  4.009  3.871  3.118 113.69 112.54 92.38 Sym.group:   12
1.0
    2.797147    -1.247230    -2.586362
   -1.410495     2.577416    -2.519683
    1.228375     1.291779     2.558554
  Ba   H
   1  12
Direct
    0.736359     0.165251     0.926728
    0.322435     0.607093     0.687493
    0.150019     0.723583     0.165856
    0.633525     0.546386     0.567159
    0.838968     0.784122     0.286192
    0.192999     0.307159     0.724223
    0.279741     0.023543     0.129342
    0.875774     0.617627     0.721963
    0.147907     0.721870     0.659746
    0.324570     0.608833     0.193744
    0.352118     0.256275     0.280995
    0.596689     0.712828     0.131351
    0.120532     0.074360     0.572500
EA5149  3.855  2.955  5.703 104.43 75.06 112.42 Sym.group:   15
1.0
    2.689356    -2.761058     0.084473
    1.170958     2.710883    -0.116067
    0.405429    -1.489349     5.489856
  Ba   H
   2  12
Direct
    0.483904     0.581416     0.881321
    0.984944     0.578504     0.381101
    0.931927     0.242026     0.699084
    0.536873     0.917901     0.563331
    0.600572     0.876401     0.250709
    0.436141     0.135572     0.529716
    0.532864     0.539337     0.234091
    0.098417     0.772251     0.751763
    0.868240     0.283439     0.011685
    0.935898     0.620437     0.028312
    0.032666     0.024297     0.732684
    0.036091     0.972053     0.065245
    0.432802     0.187796     0.197203
    0.370365     0.387600     0.510666
EA7247  3.831  3.032  5.744 105.21 94.22 113.03 Sym.group:   44
1.0
    3.830363    -0.060860     0.069916
   -1.141710     2.809139    -0.009668
   -0.550576    -1.831758     5.416623
  Ba   H
   2  12
Direct
    0.150202     0.063171     0.913908
    0.650165     0.563158     0.413914
    0.311748     0.967562     0.560533
    0.075279     0.358662     0.582988
    0.229320     0.842784     0.389399
    0.729324     0.342803     0.889437
    0.821210     0.033490     0.188792
    0.321244     0.533513     0.688809
    0.186270     0.732383     0.217548
    0.811763     0.467575     0.060549
    0.686259     0.232383     0.717557
    0.532844     0.702922     0.810987
    0.575279     0.858673     0.083010
    0.032856     0.202931     0.310979
EA3218  3.977  3.977  3.190 66.38 66.37 89.19 Sym.group:   71
1.0
    2.389735    -1.542220     2.779295
   -1.583542     2.381554     2.763692
   -1.558507    -1.569093     2.298265
  Ba   H
   1  12
Direct
    0.168096     0.356949     0.674964
    0.722788     0.219328     0.466194
    0.591939     0.932206     0.422713
    0.305470     0.802198     0.883997
    0.030539     0.911638     0.466188
    0.743385     0.780686     0.422760
    0.592655     0.932939     0.927189
    0.262006     0.972708     0.320077
    0.783893     0.450866     0.320123
    0.613359     0.494257     0.884021
    0.073999     0.741122     0.029991
    0.744185     0.781466     0.927132
    0.552273     0.262721     0.030036
EA5148  4.040  4.040  4.525 116.36 116.36 90.30 Sym.group:  123
1.0
    4.039708     0.001970     0.023481
   -0.023285     4.039680     0.021883
   -2.028645    -2.039889     3.493021
  Ba   H
   2  12
Direct
    0.958364     0.589830     0.531871
    0.458363     0.089840     0.531826
    0.527318     0.020823     0.031888
    0.029064     0.160597     0.031877
    0.028592     0.519565     0.031897
    0.577909     0.709437     0.771103
    0.886284     0.017816     0.031883
    0.530367     0.661880     0.031902
    0.838677     0.970221     0.292659
    0.889306     0.658820     0.031864
    0.338678     0.470217     0.292662
    0.077904     0.209442     0.771102
    0.387563     0.519078     0.031861
    0.388070     0.160084     0.031898
EA4827  3.639  3.610  3.639 69.69 113.80 110.32 Sym.group:   12
1.0
    3.638511     0.029209    -0.025467
   -1.280397     3.374768     0.009931
   -1.452235     0.790581     3.241277
  Ba   H
   1  12
Direct
    0.226166     0.158650     0.068554
    0.724178     0.404334     0.570521
    0.654021     0.718777     0.251368
    0.592589     0.181300     0.702078
    0.409008     0.598494     0.496427
    0.859716     0.135942     0.435011
    0.283614     0.835136     0.698611
    0.856254     0.482098     0.126020
    0.168694     0.482130     0.438460
    0.728140     0.912919     0.566573
    0.596065     0.835147     0.011069
    0.798314     0.598471     0.885727
    0.043313     0.718760     0.640650
EA9028  3.099  3.101  2.815 90.00 89.96 119.71 Sym.group:   36
1.0
    3.098788    -0.022571    -0.026557
   -1.517299     2.704040     0.002950
    0.026187     0.011500     2.815197
   H
  12
Direct
    0.090044     0.330449     0.482054
    0.172070     0.663672     0.027001
    0.419391     0.684945     0.993248
    0.331307     0.345164     0.535415
    0.419317     0.171264     0.046873
    0.090782     0.842184     0.544492
    0.852958     0.604830     0.493109
    0.654873     0.408168     0.990847
    0.930656     0.167888     0.982370
    0.913033     0.925373     0.035898
    0.597117     0.087112     0.526044
    0.575771     0.839472     0.492715
EA4915  3.069  3.073  3.307 62.46 81.28 90.21 Sym.group:    2
1.0
    3.061447    -0.037168     0.205375
   -0.002434     3.043660     0.421484
    0.308275     1.115084     3.098076
   H
  14
Direct
    0.093963     0.883311     0.829118
    0.258024     0.191906     0.278390
    0.600257     0.972788     0.596030
    0.483052     0.624273     0.131283
    0.663988     0.508932     0.042749
    0.816774     0.641915     0.492933
    0.002932     0.533002     0.402972
    0.394277     0.264246     0.704439
    0.677668     0.016137     0.065851
    0.888446     0.176122     0.935323
    0.808958     0.138823     0.469180
    0.225227     0.960388     0.258157
    0.404471     0.532094     0.646049
    0.074212     0.613923     0.893871
EA7956  3.799  2.986  5.653 100.66 85.77 68.46 Sym.group:    2
1.0
    3.798306    -0.012556    -0.047290
    1.106101     2.772449     0.065155
    0.480236    -1.445375     5.444050
  Ba   H
   2  12
Direct
    0.008253     0.684459     0.807161
    0.490769     0.271500     0.307269
    0.393837     0.077031     0.936165
    0.872956     0.600389     0.437986
    0.936976     0.524591     0.149515
    0.546962     0.103704     0.655688
    0.052386     0.095487     0.496703
    0.626094     0.355896     0.676340
    0.467674     0.754893     0.983457
    0.031641     0.199997     0.131145
    0.446655     0.860737     0.617805
    0.952107     0.852547     0.458733
    0.105149     0.878330     0.178291
    0.561635     0.430449     0.964648
EA7668  3.830  5.512  3.760 86.19 118.05 82.89 Sym.group:    2
1.0
    3.829825    -0.012120     0.060521
    0.700829     5.466919    -0.080751
   -1.818321     0.533247     3.248019
  Ba   H
   2  18
Direct
    0.712074     0.148018     0.832224
    0.350948     0.733949     0.915701
    0.979540     0.677510     0.305878
    0.163208     0.322596     0.305320
    0.724577     0.386866     0.307621
    0.123956     0.392814     0.700671
    0.535917     0.316883     0.234749
    0.842331     0.572370     0.833321
    0.770679     0.917563     0.413754
    0.009091     0.061880     0.490236
    0.220702     0.309588     0.914620
    0.373782     0.081145     0.196271
    0.083487     0.204419     0.442066
    0.527106     0.565048     0.513177
    0.939056     0.489133     0.047225
    0.899803     0.559343     0.442613
    0.689240     0.800796     0.551659
    0.292352     0.964377     0.334172
    0.338445     0.495069     0.440297
    0.053908     0.820044     0.257671
EA3637  3.646  3.646  5.622 101.81 78.20 65.38 Sym.group:   12
1.0
    3.645709    -0.042022     0.026405
    1.556873     3.296963     0.003148
    1.091534    -1.792441     5.215691
  Ba   H
   2  15
Direct
    0.468896     0.751848     0.459960
    0.209994     0.010644     0.007485
    0.843378     0.700954     0.083345
    0.087928     0.629850     0.233709
    0.159265     0.385273     0.383817
    0.519631     0.377209     0.083604
    0.590981     0.132622     0.233707
    0.065575     0.411330     0.534818
    0.809335     0.155508     0.535100
    0.835525     0.061535     0.384083
    0.883647     0.771325     0.747539
    0.229741     0.425327     0.719615
    0.869564     0.606974     0.932330
    0.613332     0.351143     0.932602
    0.839453     0.381237     0.733713
    0.449152     0.337141     0.747804
    0.795257     0.991142     0.719881
EA8996  4.078  4.078  4.576 63.67 63.67 90.27 Sym.group:  123
1.0
    4.078177    -0.021772    -0.014170
    0.002579     4.078002     0.046023
    2.052465     1.987907     3.574036
  Ba   H
   2  12
Direct
    0.344228     0.051494     0.533914
    0.844198     0.551481     0.533972
    0.914358     0.121596     0.033987
    0.415296     0.622601     0.033965
    0.913841     0.481855     0.033932
    0.724707     0.931986     0.772940
    0.274056     0.481372     0.033928
    0.274566     0.121099     0.033928
    0.463695     0.670974     0.294942
    0.775537     0.620130     0.033955
    0.963688     0.170968     0.294947
    0.224707     0.431985     0.772941
    0.773104     0.980348     0.033896
[...]
    0.956744     0.933112     0.113270
    0.119070     0.182747     0.448136
    0.203223     0.182743     0.865615
    0.119079     0.683521     0.448157
    0.203218     0.683526     0.865593
    0.870382     0.933103     0.699653
    0.449111     0.433061     0.614353
    0.660936     0.932757     0.156740
EA4996  3.092  3.700  3.726 108.11 79.86 109.77 Sym.group:    2
1.0
    3.091514     0.031846    -0.009814
   -1.287030     3.467679     0.099839
    0.678132    -1.085010     3.499018
   H
  20
Direct
    0.244231     0.492829     0.359100
    0.848559     0.191359     0.023678
    0.098178     0.641365     0.349342
    0.433139     0.912670     0.688782
    0.348654     0.028244     0.108659
    0.405081     0.389351     0.926286
    0.678233     0.299782     0.450643
    0.061703     0.051466     0.594164
    0.042483     0.226918     0.542371
    0.374790     0.560000     0.870622
    0.990392     0.576818     0.808815
    0.935782     0.755698     0.774053
    0.639915     0.815052     0.708194
    0.518439     0.119817     0.597472
    0.715251     0.899269     0.203008
    0.787978     0.367344     0.989709
    0.151085     0.132948     0.090561
    0.246913     0.821862     0.207171
    0.544254     0.453627     0.436840
    0.735543     0.723298     0.252689
EA4200  2.999  3.826  6.335 76.96 89.87 67.08 Sym.group:    8
1.0
    2.998347    -0.037753     0.023944
    1.533871     3.505050     0.023376
   -0.015728     1.525772     6.148868
  Ba   H
   2  15
Direct
    0.039316     0.356871     0.491260
    0.306877     0.824571     0.912302
    0.985728     0.465444     0.816748
    0.515812     0.401561     0.225707
    0.747900     0.938702     0.485819
    0.777429     0.882486     0.181937
    0.883118     0.669366     0.169440
    0.783517     0.870246     0.651434
    0.362733     0.709843     0.596169
    0.297679     0.846269     0.347047
    0.218880     0.266497     0.134437
    0.700758     0.033493     0.345691
    0.624807     0.195138     0.033498
    0.591317     0.258642     0.885039
    0.547148     0.342067     0.734976
    0.375998     0.685177     0.271754
    0.955145     0.267276     0.128325
EA4154  2.939  3.796  3.818 90.58 109.03 76.70 Sym.group:    2
1.0
    2.936090     0.044003    -0.134240
    0.812790     3.706226    -0.128363
   -1.084454     0.324641     3.646270
  Ba   H
   1  12
Direct
    0.704421     0.570249     0.434382
    0.452902     0.281571     0.872481
    0.052539     0.016599     0.540578
    0.435148     0.156675     0.678480
    0.046468     0.473118     0.007996
    0.362336     0.673231     0.860431
    0.917778     0.041579     0.714020
    0.492881     0.099018     0.159282
    0.959438     0.864042     0.997752
    0.493206     0.838910     0.890490
    0.927799     0.300639     0.978857
    0.357105     0.124393     0.330358
    0.970884     0.986312     0.195581
EA7884  4.419  3.966  4.674 98.60 69.45 104.98 Sym.group:    1
1.0
    4.411912    -0.046579    -0.247084
   -1.008217     3.816468    -0.382852
    1.884456     0.200217     4.272654
  Ba   H
   2  21
Direct
    0.070177     0.337153     0.129565
    0.741981     0.981812     0.709343
    0.290000     0.180246     0.574729
    0.576642     0.325677     0.112405
    0.481580     0.747674     0.187564
    0.639415     0.540210     0.394097
    0.568866     0.001103     0.351302
    0.166781     0.762739     0.457180
    0.824494     0.775066     0.225702
    0.326857     0.587028     0.710412
    0.552514     0.605226     0.065913
    0.172967     0.883563     0.308059
    0.274373     0.886475     0.067635
    0.999193     0.546606     0.627751
    0.634669     0.424738     0.549334
    0.249623     0.289780     0.464793
    0.209057     0.868459     0.891074
    0.373675     0.646596     0.541866
    0.535746     0.147116     0.233732
    0.906403     0.541263     0.811582
    0.234141     0.979441     0.711006
    0.892863     0.767050     0.040858
    0.528563     0.427137     0.771960
EA337   7.686  2.933  4.127 69.38 95.71 90.41 Sym.group:   12
1.0
    7.685871     0.024608    -0.044503
   -0.030263     2.932480     0.025843
   -0.392576     1.415294     3.856458
  Ba   H
   4   9
Direct
    0.126820     0.991563     0.626630
    0.615552     0.486436     0.638168
    0.372380     0.236878     0.134838
    0.861133     0.731780     0.146344
    0.831394     0.025717     0.562102
    0.410513     0.944500     0.718244
    0.993894     0.361763     0.886313
    0.084127     0.275544     0.064348
    0.903733     0.447860     0.708480
    0.577440     0.778798     0.054799
    0.328620     0.529307     0.553640
    0.156547     0.697624     0.210867
    0.659340     0.193997     0.219408
EA3505  4.144  4.060  3.128 89.99 90.00 90.02 Sym.group:   83
1.0
    4.144332    -0.011976    -0.030371
    0.009752     4.058862    -0.086397
    0.023282     0.066974     3.127231
  Ba   H
   1  18
Direct
    0.497582     0.501220     0.942609
    0.137123     0.433041     0.442645
    0.857979     0.569424     0.442558
    0.577256     0.129396     0.442763
    0.417845     0.873055     0.442440
    0.283423     0.009188     0.066618
    0.711420     0.993235     0.067220
    0.989660     0.285960     0.066636
    0.005417     0.716354     0.066842
    0.997718     0.001296     0.315664
    0.989685     0.286101     0.818337
    0.005449     0.716502     0.818550
    0.711700     0.993273     0.818561
    0.283690     0.009232     0.817972
    0.752813     0.757348     0.442547
    0.242308     0.245097     0.442661
    0.233325     0.748098     0.442515
    0.761764     0.254362     0.442693
    0.997399     0.001163     0.569495
EA1736  3.941  5.228  3.918 89.63 90.95 101.90 Sym.group:    2
1.0
    3.920798    -0.385559    -0.081428
   -0.571222     5.196373     0.045410
    0.015529    -0.007044     3.918137
  Ba   H
   2  21
Direct
    0.349088     0.942700     0.898041
    0.955259     0.410457     0.065409
    0.763133     0.702623     0.716302
    0.709495     0.363029     0.566185
    0.218861     0.601333     0.567460
    0.447494     0.380377     0.827995
    0.469778     0.447004     0.289815
    0.494745     0.536723     0.863757
    0.884115     0.068331     0.707557
    0.529911     0.801401     0.399825
    0.200339     0.435179     0.566519
    0.773411     0.545609     0.565116
    0.595859     0.989584     0.398009
    0.419329     0.284191     0.258090
    0.103942     0.917491     0.397352
    0.082211     0.750694     0.395992
    0.647386     0.172307     0.474790
    0.857050     0.972265     0.134668
    0.833690     0.905062     0.673175
    0.130868     0.242882     0.581607
    0.810492     0.816340     0.099976
    0.168393     0.109299     0.381472
    0.541759     0.650144     0.253362
EA7299  6.582  3.381  3.600 104.99 95.39 76.65 Sym.group:    1
1.0
    6.580720     0.103084     0.024525
    0.729223     3.301506     0.040477
   -0.336961    -0.922006     3.463737
  Ba   H
   2  20
Direct
    0.305876     0.762876     0.200168
    0.769141     0.093169     0.766319
    0.432852     0.048821     0.832660
    0.535364     0.150492     0.234505
    0.621534     0.611127     0.453472
    0.487778     0.547959     0.674817
    0.604386     0.353009     0.297677
    0.426650     0.358523     0.597930
    0.105719     0.791599     0.673882
    0.976506     0.084641     0.305859
    0.115832     0.031134     0.733066
    0.966006     0.846633     0.237843
    0.000272     0.529144     0.887182
    0.826177     0.655300     0.200589
    0.113394     0.398484     0.343424
    0.878570     0.464096     0.384761
    0.673248     0.741500     0.116029
    0.302049     0.164764     0.780418
    0.573694     0.757601     0.930870
    0.201585     0.384855     0.602707
    0.081171     0.333559     0.091565
    0.963544     0.476070     0.639125
EA8748  2.970  5.946  6.468 85.69 76.73 89.86 Sym.group:    2
1.0
    2.954494    -0.297247     0.026565
    0.607408     5.912149     0.171600
    1.451083     0.157099     6.301068
  Ba   H
   5  11
Direct
    0.545220     0.199715     0.414046
    0.934590     0.787938     0.616615
    0.136208     0.595676     0.221703
    0.337734     0.403426     0.826768
    0.727146     0.991669     0.029313
    0.301972     0.765169     0.887281
    0.169045     0.229980     0.152380
    0.382423     0.020115     0.758836
    0.103324     0.961389     0.291008
    0.569426     0.831144     0.355385
    0.889844     0.171287     0.684515
    0.769645     0.631443     0.954808
    0.702961     0.360224     0.087999
    0.970405     0.426183     0.556099
    0.502741     0.559912     0.488566
    0.136137     0.095712     0.721682