Folder: xrpostprocessing/xrpostproc/powder_xrd_deep_screening

Note: README.md
# Introduction 
This is a collection of scripts for postprocessing USPEX results when working with X-ray data.
The instructions for using each script are in the file `documentation/documentation.pdf`.

# First use
I suppose that you have Python 3 installed in your system, and that it is accessible through the command `python`.
1.  Unzip the project folder
2.  `python -m venv .venv`
3.  `.venv\Scripts\activate` or for Linux just use `source .venv/bin/activate`
4.  `python -m pip install -r requirements.txt`
5.  Add permanently the project folder to your `PYTHONPATH` environment variable

# Before every use
1.  Go to the project folder
2.  `.venv\Scripts\activate` or for Linux just use `source .venv/bin/activate`

File: UH_50_extended_convex_hull_POSCARS.txt
EA1092  3.845  3.842  3.530 90.29 89.59 64.34 Sym.group:    2
1.0000
    3.772579    -0.158607    -0.726683
    1.704633     3.373486    -0.688369
    0.703041     0.327495     3.444153
   H
  16
Direct
    0.435282     0.333320     0.508501
    0.274345     0.412578     0.646305
    0.051820     0.138013     0.977386
    0.211245     0.056777     0.838021
    0.663089     0.019334     0.140948
    0.156116     0.514806     0.133396
    0.331347     0.950149     0.348572
    0.820361     0.451106     0.348471
    0.932991     0.830171     0.508323
    0.775966     0.913089     0.649848
    0.552511     0.633990     0.979014
    0.710299     0.559548     0.837673
    0.587976     0.186966     0.013684
    0.093905     0.693381     0.022545
    0.391232     0.779530     0.471065
    0.901483     0.278214     0.468509
EA596   4.700  5.174  5.354 90.00 90.00 90.00 Sym.group:   63
1.0000
    4.692375    -0.173134     0.211613
    0.181521     5.166903     0.202268
   -0.248443    -0.200471     5.344742
   U
   8
Direct
    0.752496     0.621264     0.145772
    0.252270     0.871038     0.847836
    0.252122     0.121215     0.347895
    0.752318     0.371099     0.645786
    0.252309     0.371071     0.847862
    0.752109     0.121241     0.145743
    0.752278     0.871129     0.645769
    0.252478     0.621195     0.347796
EA972   3.743  3.746  5.473 89.97 89.97 60.05 Sym.group:  194
1.0000
    3.667387    -0.713276     0.219140
    2.468586     2.807147    -0.235967
   -0.198495     0.635428     5.432221
   U   H
   2   14
Direct
    0.792462     0.860948     0.458712
    0.125327     0.195229     0.958698
    0.457939     0.529216     0.958157
    0.459681     0.527150     0.458168
    0.097517     0.708594     0.129235
    0.277286     0.345731     0.289742
    0.278047     0.346885     0.628597
    0.094829     0.710548     0.789443
    0.277803     0.889977     0.628970
    0.278352     0.889951     0.288963
    0.821957     0.346852     0.288855
    0.641507     0.710758     0.127590
    0.639460     0.166734     0.129266
    0.639630     0.166619     0.788164
    0.639505     0.709494     0.788876
    0.823340     0.345439     0.627750
EA5626  3.588  3.580  7.331 86.18 93.76 88.98 Sym.group:   15
1.0000
    3.583724    -0.145209    -0.093235
    0.209181     3.573999     0.020665
   -0.272000     0.462526     7.311697
   U   H
   4   10
Direct
    0.939038     0.484211     0.048078
    0.277878     0.951515     0.242191
    0.375547     0.049107     0.742745
    0.842171     0.386379     0.547481
    0.099683     0.877824     0.503744
    0.643881     0.543530     0.797306
    0.117962     0.558086     0.786639
    0.769484     0.205081     0.286461
    0.783914     0.685727     0.296685
    0.447005     0.230689     0.003721
    0.433080     0.749451     0.993634
    0.336448     0.445362     0.395277
    0.880274     0.991065     0.894788
    0.574422     0.891341     0.493198
EA8459  3.479  3.312  3.311 94.46 89.99 89.99 Sym.group:   63
1.0000
    3.456287    -0.015141    -0.400326
   -0.020691     3.297240    -0.306348
    0.381978     0.049388     3.288918
   U   H
   2    2
Direct
    0.379442     0.785014     0.104094
    0.879518     0.153415     0.736337
    0.879357     0.572238     0.322925
    0.379588     0.368436     0.519554
EA3754  5.211  4.790  3.512 90.00 89.91 89.97 Sym.group:   57
1.0000
    5.209340    -0.112504     0.096284
    0.107489     4.788694    -0.069793
   -0.058470     0.052382     3.510655
   U   H
   4    8
Direct
    0.264446     0.189328     0.254211
    0.736150     0.309815     0.752913
    0.735382     0.689294     0.252937
    0.264882     0.809901     0.754211
    0.339905     0.395824     0.754080
    0.947778     0.997901     0.503664
    0.660746     0.896105     0.753028
    0.052574     0.499162     0.003572
    0.947675     0.000233     0.003903
    0.339298     0.603235     0.254059
    0.052840     0.501355     0.503049
    0.660766     0.103314     0.252951
EA5967  3.475  3.316  3.310 94.53 90.00 89.94 Sym.group:   63
1.0000
    3.468983    -0.031094    -0.202034
    0.007357     3.286403    -0.442512
    0.193877     0.179854     3.299642
   U   H
   2    2
Direct
    0.374558     0.786711     0.104082
    0.873988     0.156031     0.738404
    0.875032     0.575612     0.327878
    0.373527     0.366911     0.514522
EA7197  3.464  4.828  5.719 114.88 72.56 89.97 Sym.group:   72
1.0000
    3.410553    -0.172144    -0.579658
   -0.513666     2.830746    -3.877680
    2.620740     2.462698     4.446419
   U   H
   4    6
Direct
    0.164663     0.704303     0.246650
    0.664863     0.083202     0.247084
    0.412411     0.833541     0.748704
    0.911914     0.455042     0.748865
    0.953375     0.001529     0.663123
    0.623965     0.536194     0.331701
    0.123445     0.336616     0.332558
    0.453067     0.201942     0.663929
    0.039092     0.268377     0.997933
    0.537810     0.268978     0.997744
EA2962  2.872  2.862  2.883 89.93 90.26 90.25 Sym.group:    1
1.0000
    2.853903    -0.139631     0.287713
    0.161451     2.836391    -0.347161
   -0.282186     0.367868     2.845641
   H
   8
Direct
    0.882002     0.585095     0.033173
    0.383119     0.726864     0.706415
    0.257143     0.576737     0.540739
    0.758186     0.716697     0.213121
    0.249918     0.079493     0.203079
    0.388924     0.223554     0.043710
    0.889848     0.087373     0.708827
    0.749395     0.216708     0.538129
EA3806  2.861  2.898  2.840 89.97 90.34 89.81 Sym.group:  205
1.0000
    2.811339    -0.176825     0.501145
    0.290451     2.824990    -0.576632
   -0.466207     0.607763     2.734399
   H
   8
Direct
    0.822762     0.597251     0.000040
    0.176323     0.606697     0.498898
    0.332201     0.746937     0.647343
    0.685175     0.755866     0.146558
    0.185830     0.099155     0.147471
    0.323469     0.254743     0.998459
    0.830259     0.105026     0.647891
    0.678215     0.248586     0.497794
EA3807  2.901  2.847  2.881 90.23 90.31 89.71 Sym.group:    1
1.0000
    2.894812    -0.157891     0.101619
    0.164306     2.838980     0.136699
   -0.124227    -0.142690     2.874458
   H
   8
Direct
    0.050305     0.863328     0.096156
    0.055039     0.234288     0.603375
    0.374451     0.729633     0.596353
    0.382471     0.361847     0.103013
    0.546434     0.222514     0.964810
    0.879083     0.720495     0.971447
    0.555507     0.854912     0.470191
    0.874778     0.349917     0.463949
EA3723  3.760  3.767  5.331 90.07 90.02 119.91 Sym.group:  187
1.0000
    3.744055     0.341462    -0.064541
   -2.165027     3.079834     0.118842
    0.102673    -0.141910     5.328032
   U   H
   2   13
Direct
    0.129462     0.475725     0.903810
    0.796040     0.809011     0.403705
    0.645567     0.507903     0.736550
    0.809705     0.315353     0.249080
    0.289731     0.796398     0.248568
    0.289746     0.315751     0.558177
    0.807764     0.315191     0.558655
    0.098161     0.961286     0.071049
    0.644027     0.504098     0.071684
    0.288561     0.315453     0.249298
    0.462865     0.142240     0.902382
    0.643037     0.961927     0.735828
    0.100062     0.960927     0.736920
    0.644804     0.961465     0.070970
    0.287908     0.792159     0.559336
[...]
    0.037101     0.550707     0.815216
    0.799301     0.551428     0.565509
    0.374908     0.549625     0.047913
    0.201864     0.055488     0.169085
    0.720243     0.548157     0.197821
    0.227853     0.049669     0.923002
    0.545672     0.802110     0.779944
    0.889249     0.053152     0.298760
    0.544974     0.299088     0.779282
    0.009285     0.051925     0.656385
EA4572  3.487  7.002  3.706 95.41 84.54 94.93 Sym.group:    1
1.0000
    3.471753    -0.299654    -0.137222
   -0.031942     6.964079    -0.728114
    0.502096     0.034801     3.671257
   U   H
   4    9
Direct
    0.583246     0.678891     0.179523
    0.577885     0.195537     0.141721
    0.985959     0.949922     0.784734
    0.051414     0.465022     0.830981
    0.111177     0.837725     0.251170
    0.044073     0.670922     0.490190
    0.050382     0.069988     0.305387
    0.101562     0.341065     0.305095
    0.300649     0.211281     0.661606
    0.801177     0.207625     0.620226
    0.575591     0.447318     0.501941
    0.513915     0.957487     0.455849
    0.424754     0.769033     0.717819
EA8046  3.440  4.895  4.824 91.06 88.66 91.73 Sym.group:    1
1.0000
    3.430303     0.172704     0.199561
   -0.387437     4.878068    -0.112461
   -0.167347     0.008150     4.820918
   U   H
   4    6
Direct
    0.763173     0.310865     0.274920
    0.308507     0.889213     0.370631
    0.722675     0.843918     0.799082
    0.285169     0.398340     0.902615
    0.824954     0.719715     0.195924
    0.024593     0.566540     0.561214
    0.509493     0.548845     0.546424
    0.211100     0.989840     0.971292
    0.787239     0.254767     0.700722
    0.250806     0.276078     0.501771
EA259   3.662  5.106  3.374 84.67 89.99 89.98 Sym.group:    6
1.0000
    3.600225     0.320155    -0.588794
   -0.474075     5.082349    -0.145345
    0.500639     0.456293     3.305719
   U   H
   2   11
Direct
    0.447492     0.460080     0.943251
    0.947543     0.970575     0.518139
    0.194005     0.821318     0.041010
    0.728236     0.337209     0.465972
    0.195827     0.618768     0.421252
    0.179998     0.331658     0.465868
    0.692149     0.622622     0.420670
    0.946670     0.591605     0.824176
    0.448250     0.097944     0.748676
    0.699646     0.821262     0.041749
    0.447550     0.073864     0.232153
    0.946751     0.226965     0.983480
    0.447227     0.830226     0.650595
EA2879  3.711  6.011  3.725 96.94 90.54 107.56 Sym.group:    8
1.0000
    3.606447    -0.296860     0.822043
   -1.335294     5.856436    -0.214985
   -0.895185    -0.534921     3.576385
   U   H
   3   11
Direct
    0.123953     0.377072     0.902362
    0.454261     0.041877     0.265362
    0.791034     0.713328     0.562527
    0.645979     0.413823     0.180589
    0.038277     0.212665     0.372094
    0.542303     0.212537     0.825507
    0.616171     0.369851     0.610562
    0.892752     0.920014     0.113269
    0.205226     0.541216     0.430058
    0.043114     0.697748     0.070384
    0.735214     0.036901     0.757432
    0.524182     0.698036     0.065439
    0.346304     0.823052     0.716138
    0.169962     0.036911     0.755216
EA7502  3.411  3.339  3.948 100.04 89.65 90.35 Sym.group:   11
1.0000
    3.409887    -0.091764    -0.042634
    0.063797     3.313028    -0.407683
    0.067452    -0.209909     3.941430
   U   H
   2    4
Direct
    0.173031     0.909504     0.744825
    0.672615     0.493505     0.376192
    0.674198     0.289409     0.838684
    0.171266     0.113350     0.282292
    0.174360     0.481899     0.060969
    0.671267     0.921018     0.059825

File: UH_50_powder.txt
7.818	31.8105
8.6728	71.4044
9.95501	95.7699
10.5961	28.934
11.1401	27.4112
12.3057	26.2267
14.1708	17.2589
15.0644	20.1354
16.5603	19.1201
17.3569	17.0897
18.0174	7.2758
19.5133	12.0135
20.1155	7.78342
20.5429	10.8291
21.8834	6.09137