Folder: xrpostprocessing/xrpostproc/single_plot

Note: README.md
# Introduction 
This is a collection of scripts for postprocessing USPEX results when working with X-ray data.
The instructions for using each script are in the file `documentation/documentation.pdf`.

# First use
I suppose that you have Python 3 installed in your system, and that it is accessible through the command `python`.
1.  Unzip the project folder
2.  `python -m venv .venv`
3.  `.venv\Scripts\activate` or for Linux just use `source .venv/bin/activate`
4.  `python -m pip install -r requirements.txt`
5.  Add permanently the project folder to your `PYTHONPATH` environment variable

# Before every use
1.  Go to the project folder
2.  `.venv\Scripts\activate` or for Linux just use `source .venv/bin/activate`

File: XRD_30gpa_NaCl.txt
2.7034	0.1825
2.7558	2.7515
2.8082	4.5417
2.8606	6.6997
2.9130	7.8339
2.9654	8.1057
3.0178	7.1731
3.0702	9.5436
3.1226	8.9544
3.1750	9.8807
3.2274	10.4895
3.2799	10.4145
3.3323	9.0101
3.3847	7.5007
3.4371	4.7228
3.4895	6.7275
3.5419	5.1666
3.5943	5.1045
3.6467	5.2082
3.6991	4.0433
3.7515	3.9590
3.8039	1.0838
3.8563	0.2958
3.9087	1.4739
3.9612	1.8077
4.0136	2.7533
4.0660	-0.4954
4.1184	0.1861
4.1708	0.1709
4.2232	-0.0333
4.2756	1.1645
4.3280	-0.8289
4.3804	2.0527
4.4328	14.3772
4.4852	16.8469
4.5376	2.1782
4.5900	5.3329
4.6425	48.7823
4.6949	4.3379
4.7473	1.5249
4.7997	1.7949
4.8521	1.4745
4.9045	1.5672
4.9569	0.7409
5.0093	0.7229
5.0617	0.9562
5.1141	1.8507
5.1665	9.0927
5.2189	2.0253
5.2713	0.0464
5.3238	0.8324
5.3762	0.5077
5.4286	0.5729
5.4810	1.0522
5.5334	3.2432
5.5858	17.0417
5.6382	46.3994
5.6906	17.7459
5.7430	10.7185
5.7954	0.7144
5.8478	3.1484
5.9002	2.2033
5.9526	0.7589
6.0051	2.1068
6.0575	1.0219
6.1099	0.5367
6.1623	1.7850
6.2147	1.3697
6.2671	3.4974
6.3195	6.8289
6.3719	13.7375
6.4243	41.9562
6.4767	349.4398
6.5291	243.2919
6.5815	29.4942
6.6340	9.8347
6.6864	6.3189
6.7388	5.9829
6.7912	36.6996
6.8436	106.7087
6.8960	26.5528
6.9484	5.2247
7.0008	4.5070
7.0532	8.0692
7.1056	0.6311
7.1580	1.0466
7.2104	2.6804
7.2628	11.6572
7.3153	33.6651
7.3677	7.9450
7.4201	6.7948
7.4725	13.0594
7.5249	27.3448
7.5773	108.5408
7.6297	891.4019
7.6821	508.0962
7.7345	423.6478
7.7869	61.6467
7.8393	22.7678
7.8917	18.5331
7.9441	48.5142
7.9966	44.2534
8.0490	20.2554
8.1014	35.2099
8.1538	390.6501
8.2062	267.5057
8.2586	29.9247
8.3110	11.0448
8.3634	5.8927
8.4158	2.7629
8.4682	4.6401
8.5206	11.9667
8.5730	5.0208
8.6254	2.3099
8.6779	0.7061
8.7303	1.6814
8.7827	2.3739
8.8351	2.7938
8.8875	7.6454
8.9399	28.6344
8.9923	8.2640
9.0447	6.3326
9.0971	7.1082
9.1495	14.1186
9.2019	40.5952
9.2543	218.3372
9.3067	174.3176
9.3592	37.5926
9.4116	18.5633
9.4640	14.2390
9.5164	8.9554
9.5688	5.5790
9.6212	5.4487
9.6736	9.5363
9.7260	6.2020
9.7784	5.1637
9.8308	6.4884
9.8832	35.2561
9.9356	41.8964
9.9880	15.8829
10.0405	20.4170
10.0929	14.9427
10.1453	14.2733
10.1977	18.7825
10.2501	31.3529
10.3025	51.5795
10.3549	46.7544
10.4073	17.6660
10.4597	9.0689
10.5121	6.1552
10.5645	4.8021
10.6169	4.6311
10.6693	3.4263
10.7218	2.0372
10.7742	0.2800
10.8266	1.7062
10.8790	1.8467
10.9314	4.2118
10.9838	5.4967
11.0362	6.1383
11.0886	16.6650
11.1410	22.5729
11.1934	32.2649
11.2458	111.4803
11.2982	60.9900
11.3506	14.0714
11.4031	9.0801
11.4555	10.1985
11.5079	30.6631
11.5603	68.4895
11.6127	36.7690
11.6651	24.5215
11.7175	45.0663
11.7699	67.7824
11.8223	22.3034
11.8747	7.4443
11.9271	3.6012
11.9795	2.8872
12.0320	3.8664
12.0844	8.2505
12.1368	20.6931
12.1892	55.6173
12.2416	119.6662
12.2940	77.3670
12.3464	125.9435
12.3988	87.3904
12.4512	26.6695
12.5036	10.4540
12.5560	6.7312
12.6084	5.4850
12.6608	7.4637
12.7133	8.9938
12.7657	12.0274
12.8181	14.2475
12.8705	21.1425
12.9229	18.4321
12.9753	21.6341
13.0277	29.7660
13.0801	28.6496
13.1325	51.8717
13.1849	23.1620
13.2373	12.2056
13.2897	12.7445
13.3421	16.8864
13.3946	47.3092
13.4470	37.0311
13.4994	17.6987
13.5518	16.1392
13.6042	22.2074
13.6566	80.6683
13.7090	83.5613
13.7614	48.5770
13.8138	41.4720
13.8662	42.8604
13.9186	42.0920
13.9710	40.8672
14.0234	65.4193
14.0759	62.2784
14.1283	29.4080
14.1807	12.0462
14.2331	7.4561
14.2855	5.1588
14.3379	5.8647
14.3903	6.3482
14.4427	2.8546
14.4951	0.3637
14.5475	0.0762
14.5999	3.0433
14.6523	1.0100
14.7047	1.6023
14.7572	8.7991
14.8096	11.7423
14.8620	2.0494
14.9144	0.2223
14.9668	-0.1167
15.0192	1.4364
15.0716	7.5058
15.1240	8.2008
15.1764	18.8944
15.2288	48.5598
15.2812	37.6465
15.3336	26.7854
15.3860	17.8841
15.4385	8.4925
15.4909	8.2598
15.5433	9.9691
15.5957	18.3478
15.6481	21.0879
15.7005	20.9155
15.7529	32.3668
15.8053	18.1904
15.8577	4.8404
15.9101	2.7374
15.9625	2.7411
16.0149	1.1271
16.0673	1.7330
16.1198	3.7293
16.1722	2.5621
16.2246	2.1103
16.2770	1.6906
16.3294	2.2495
16.3818	1.7678
16.4342	1.2953
16.4866	2.8669
16.5390	1.5183
16.5914	1.3918
16.6438	0.7115
16.6962	1.0686
16.7486	1.3881
16.8011	3.1181
16.8535	10.1464
16.9059	8.7151
16.9583	10.7377
17.0107	7.2291
17.0631	5.1591
17.1155	7.9705
17.1679	8.5953
17.2203	5.2939
17.2727	0.9596
17.3251	-6.5129e-3
17.3775	0.5703
17.4300	-7.3196e-3
17.4824	0.4039
17.5348	5.3109
17.5872	2.7800
17.6396	0.9757
17.6920	2.8483
17.7444	1.9193
17.7968	0.1625
17.8492	1.1026
17.9016	9.8666
17.9540	1.5638
18.0064	-0.4266
18.0588	1.0595
18.1113	3.5012
18.1637	-0.2279
18.2161	-1.0113
18.2685	0.2171
18.3209	0.3645