Folder: xrpostprocessing/xrpostproc/xdatcar_to_xrd

Note: README.md
# Introduction 
This is a collection of scripts for postprocessing USPEX results when working with X-ray data.
The instructions for using each script are in the file `documentation/documentation.pdf`.

# First use
I suppose that you have Python 3 installed in your system, and that it is accessible through the command `python`.
1.  Unzip the project folder
2.  `python -m venv .venv`
3.  `.venv\Scripts\activate` or for Linux just use `source .venv/bin/activate`
4.  `python -m pip install -r requirements.txt`
5.  Add permanently the project folder to your `PYTHONPATH` environment variable

# Before every use
1.  Go to the project folder
2.  `.venv\Scripts\activate` or for Linux just use `source .venv/bin/activate`

File: XDATCAR.txt
unknown system
           1
     4.034659   -0.019940    0.027117
     0.017887    4.985913    0.005660
     0.020281   -0.006637    4.980041
   S    H
   8  24
Direct configuration=    10
   0.774365  0.317009  0.715854
   0.277363  0.321537  0.388239
   0.276332  0.965251  0.767575
   0.780101  0.911682  0.380449
   0.764301  0.767533  0.859672
   0.261964  0.398545  0.828009
   0.223075  0.815053  0.184264
   0.754664  0.46969  0.25831
   0.247885  0.323132  0.09720938
  -0.02648289  0.201416  0.08803048
  -0.00406298  0.207097  0.502959
   0.47985  0.951838  0.538139
   0.560505  0.199525  0.538502
   0.804127  0.176129  0.303126
   0.551867  0.14848  0.115293
   0.789293  0.04786951  0.785018
   0.02560231  0.96734  0.567925
   0.561576  0.125309  0.968314
   0.955593  0.05756595  0.02831234
   0.666796  0.851345  0.123182
   0.03031282  0.582307  0.910298
   0.752749  0.377301  1.00237
   0.479044  0.606864  0.152387
   0.07306204  0.550123  0.177349
   0.256507  0.694685  0.727515
   0.481708  0.599966  0.918909
   0.337995  0.07677923  0.251071
   0.07590181  0.554901  0.534074
   0.964232  0.671608  0.597509
   0.59414  0.673367  0.595388
   0.458687  0.564111  0.530345
   0.243829  0.74475  0.43255
unknown system
           1
     4.037564   -0.057351    0.037852
     0.017845    4.958581    0.019546
     0.020193   -0.006608    4.958359
   S    H
   8  24
Direct configuration=    20
   0.777045  0.319232  0.707561
   0.285081  0.31968  0.389082
   0.283842  0.967955  0.771107
   0.78783  0.918999  0.379079
   0.763247  0.761264  0.855138
   0.265283  0.407073  0.827229
   0.230638  0.82692  0.194904
   0.75341  0.469825  0.261716
   0.27622  0.336395  0.09186220
  -0.00661759  0.208229  0.05696294
   0.01063966  0.195543  0.485711
   0.491991  0.937091  0.506465
   0.531872  0.193182  0.537116
   0.771377  0.164962  0.261503
   0.554434  0.124741  0.110193
   0.799235  0.04844131  0.807088
  -0.01832935  0.978334  0.619763
   0.577786  0.130007  0.943301
   0.976148  0.05265072  0.02444945
   0.667865  0.855777  0.11142
   0.01448956  0.580775  0.964691
   0.759677  0.404656  0.9896
   0.500105  0.623301  0.188695
   0.08998525  0.570002  0.194323
   0.2411  0.694021  0.727189
   0.497256  0.598655  0.931387
   0.318405  0.09033166  0.231409
   0.09153777  0.552988  0.51895
   0.927489  0.667104  0.548621
   0.591735  0.658836  0.627591
   0.501433  0.591946  0.502414
   0.267643  0.77088  0.464111
unknown system
           1
     4.042273   -0.093080    0.048100
     0.017812    4.933539    0.033337
     0.020111   -0.006581    4.938184
   S    H
   8  24
Direct configuration=    30
   0.785086  0.316291  0.696798
   0.300681  0.323799  0.392118
   0.291108  0.96889  0.782314
   0.792842  0.915557  0.383584
   0.770721  0.758071  0.850033
   0.261902  0.41443  0.829832
   0.243456  0.835086  0.197179
   0.757509  0.473248  0.262735
   0.333712  0.377346  0.09094250
  -0.00208556  0.229362  0.08864552
   0.03497763  0.162267  0.466778
   0.475784  0.938879  0.531332
   0.554563  0.163151  0.531427
   0.764996  0.213291  0.267523
   0.60413  0.153749  0.09399019
   0.783935  0.04411490  0.826528
   0.03581145  0.980485  0.606639
   0.492886  0.166219  0.9443
   0.95864  0.09621304  0.02964784
   0.656144  0.905209  0.09700166
   0.111177  0.651674  0.974034
   0.717636  0.379311  0.985054
   0.501377  0.656543  0.216694
   0.08108980  0.54183  0.218282
   0.224299  0.696792  0.707513
   0.47446  0.625205  0.961447
   0.359629  0.09205798  0.239104
   0.113763  0.554844  0.511926
   0.918635  0.655506  0.577842
   0.514425  0.635892  0.636608
   0.481451  0.611632  0.487811
   0.237266  0.760785  0.487101
unknown system
           1
     4.048969   -0.127338    0.058128
     0.017785    4.911450    0.046191
     0.020034   -0.006556    4.919492
   S    H
   8  24
Direct configuration=    40
   0.796686  0.319532  0.693937
   0.308656  0.330888  0.400481
   0.291881  0.961806  0.794014
   0.801348  0.915725  0.382184
   0.789097  0.763421  0.845456
   0.254614  0.421505  0.828071
   0.247551  0.838741  0.195981
   0.769131  0.485369  0.252168
   0.317436  0.393478  0.135984
   0.00936989  0.245181  0.11986
   0.04774174  0.161486  0.374009
   0.531522  0.913655  0.569296
   0.504606  0.164666  0.521424
   0.789967  0.19501  0.34143
   0.685946  0.146438  0.09813905
   0.861971  0.08230901  0.777824
   0.106671  1.0057  0.567881
   0.463678  0.166559  1.00332
   1.03747  0.11525  0.03955786
   0.714088  0.917566  0.06610410
   0.02014415  0.63906  0.980948
   0.761167  0.395404  0.97141
   0.519621  0.681223  0.160653
   0.107448  0.566983  0.177568
   0.21203  0.694036  0.699763
   0.49919  0.596605  0.931846
   0.397649  0.102071  0.188537
   0.08969929  0.546787  0.504529
   0.958229  0.674508  0.583612
   0.561726  0.646137  0.639806
   0.477111  0.616021  0.505255
   0.254404  0.765603  0.448636
unknown system
           1
     4.058091   -0.160593    0.067686
     0.017764    4.892740    0.057380
     0.019971   -0.006536    4.903892
   S    H
   8  24
Direct configuration=    50
   0.797961  0.325839  0.693508
   0.306223  0.3413  0.405785
   0.295957  0.955999  0.79935
   0.805404  0.918366  0.379481
   0.813018  0.777753  0.846183
   0.257163  0.417238  0.827813
   0.268539  0.841456  0.200848
   0.772549  0.491679  0.246605
   0.358813  0.364055  0.116297
   0.01445206  0.236021  0.07831103
   0.06537786  0.151963  0.353894
   0.567404  0.948417  0.600706
   0.53015  0.127112  0.626789
   0.675819  0.203055  0.370183
   0.67866  0.165899  0.06848031
   0.854549  0.06211684  0.743201
   0.110142  1.00822  0.554402
   0.604134  0.124063  0.908686
   1.03171  0.09452410  0.04314889
   0.758665  0.937263  0.08939482
   0.02059924  0.558969  0.945226
   0.725185  0.376888  0.979129
   0.5296  0.684913  0.111505
   0.08627909  0.587755  0.207556
   0.253036  0.674585  0.672551
   0.529271  0.555779  0.904104
   0.420431  0.107615  0.203282
   0.131509  0.570105  0.454883
   0.985976  0.722996  0.518997
   0.606288  0.629469  0.623056
   0.540626  0.605858  0.466909
   0.407528  0.797246  0.444909
unknown system
           1
     4.070147   -0.192682    0.076379
     0.017750    4.877493    0.067434
     0.019922   -0.006520    4.891887
   S    H
   8  24
Direct configuration=    60
   0.811371  0.33445  0.684959
   0.28369  0.349418  0.401987
   0.297362  0.949287  0.798243
   0.809713  0.923559  0.378412
   0.835482  0.781686  0.841474
   0.270697  0.411387  0.821275
   0.284636  0.848026  0.209612
   0.771622  0.48456  0.236781
   0.271539  0.346925  0.08282907
  -0.02187260  0.247701  0.05757560
   0.00671912  0.195936  0.315504
   0.58199  0.961454  0.586456
   0.504639  0.241607  0.600925
   0.581222  0.162433  0.329917
   0.653735  0.16733  0.09147426
   0.866587  0.08524862  0.773147
   0.14814  1.06172  0.567539
   0.563997  0.06460892  0.977363
   0.993656  0.113925  0.00255603
   0.779359  0.905653  0.09098616
   0.05285792  0.63226  1.00295
   0.648931  0.352821  0.967242
   0.568276  0.661221  0.129772
   0.164424  0.541615  0.195967
   0.351286  0.721854  0.66727
   0.493821  0.671223  0.892322
   0.409866  0.08777993  0.14381
   0.125123  0.599053  0.546159
   0.985062  0.712077  0.565975
   0.58825  0.628362  0.632397
   0.591785  0.622109  0.461773
   0.341298  0.852115  0.483068
unknown system
           1
     4.084711   -0.224319    0.084976
     0.017745    4.865460    0.076859
     0.019892   -0.006510    4.884627
   S    H
   8  24
Direct configuration=    70
   0.833025  0.352631  0.676135
   0.249891  0.357354  0.39422
   0.294376  0.962798  0.798868
   0.826725  0.932876  0.383017
   0.846576  0.78342  0.83804
   0.276985  0.412877  0.821401
   0.293751  0.847184  0.215196
   0.771559  0.465543  0.228587
   0.250284  0.326279  0.07376670
  -0.05375277  0.272581  0.04654052
  -0.02457118  0.155822  0.273961
   0.538138  1.0199  0.599371
   0.57162  0.21103  0.497034
   0.535886  0.18075  0.285028
   0.688789  0.134029  0.104579
   0.821407  0.06305102  0.780961
   0.132136  1.0829  0.571432
   0.588174  0.115757  0.962094
   1.07015  0.07727894  0.00573485
   0.763642  0.841371  0.108135
   0.09529454  0.59882  0.932975
   0.633131  0.435375  0.897834
   0.496313  0.569171  0.140504
   0.145182  0.614897  0.207286
   0.396782  0.689713  0.671093
   0.504565  0.705233  0.949102
   0.260542  0.165429  0.181879
   0.144927  0.619856  0.525403
   0.970957  0.701724  0.531779
   0.590157  0.59915  0.62472
   0.532571  0.648698  0.441806
   0.283733  0.837202  0.516147
unknown system
           1
     4.101315   -0.255325    0.092897
     0.017749    4.856837    0.085208
     0.019878   -0.006505    4.881114
   S    H
   8  24
Direct configuration=    80
   0.845211  0.362338  0.661981
   0.22954  0.363274  0.398369
   0.291776  0.989445  0.788
   0.83962  0.941407  0.38718
   0.850527  0.784594  0.835492
   0.28274  0.410324  0.819078
   0.311753  0.839542  0.221113
   0.769792  0.436857  0.221874
   0.285453  0.345454  0.116668
  -0.103108  0.249288 -0.05022544
  -0.05662876  0.162746  0.187201
   0.592126  1.00363  0.588992
   0.502898  0.239715  0.511485
   0.59815  0.12765  0.2923
   0.614497  0.06912385  0.05051319
   0.762753  0.08211384  0.762484
   0.133189  1.0652  0.533822
   0.501471  0.164839  0.960539
   0.96895  0.09919909 -0.00607429
   0.718973  0.839347  0.12018
   0.114674  0.615638  0.965352
   0.624516  0.456803  0.934407
   0.431182  0.57595  0.138727
  -0.09786615  0.72257  0.165037
   0.335018  0.69561  0.714158
   0.515819  0.698157  0.861086
   0.236975  0.09068700  0.171245
   0.160259  0.633632  0.522043
   0.917031  0.6586  0.470892
   0.589668  0.558413  0.531228
   0.518691  0.693023  0.468727
   0.312636  0.860554  0.479984
unknown system
           1
     4.119831   -0.286346    0.101519
     0.017760    4.850827    0.093289
     0.019878   -0.006505    4.880993
   S    H
   8  24
Direct configuration=    90
   0.83343  0.351112  0.633511
   0.229751  0.36251  0.391559
   0.294863  1.01188  0.778776
   0.850116  0.946244  0.389131
   0.848354  0.785887  0.831293
   0.300496  0.412431  0.828137
   0.322337  0.83542  0.217056
   0.772599  0.406807  0.20453
   0.301643  0.380988  0.09654306
  -0.106988  0.3228 -0.08596076
  -0.01156866  0.123434  0.130718
   0.561791  1.00364  0.588444
   0.548862  0.249983  0.526509
   0.546063  0.165825  0.267553
   0.607894  0.08638079 -0.01798406
   0.768033  0.04581947  0.752082
   0.125597  1.074  0.522652
   0.586483  0.239589  0.998326
   0.917924  0.00375805 -0.01064602
   0.571969  0.895805  0.02140251
   0.134423  0.570503  1.04741
   0.612177  0.490457  0.939733
   0.534997  0.565951  0.201334
  -0.108817  0.679682  0.16416
   0.160045  0.713289  0.658744
   0.516813  0.707925  0.820858
   0.272209  0.154693  0.159967
   0.169633  0.663156  0.477178
   0.932302  0.690835  0.484996
   0.516605  0.567774  0.493029
   0.622556  0.71737  0.523564
   0.354756  0.909463  0.483926
unknown system
           1
     4.140912   -0.315868    0.110225
     0.017778    4.846616    0.101375
     0.019892   -0.006510    4.884634
   S    H
   8  24
Direct configuration=   100
   0.819986  0.337432  0.618365
   0.248081  0.361167  0.377551
   0.292689  1.03055  0.77794
   0.852424  0.947424  0.379978
   0.840637  0.77031  0.848538
   0.317709  0.434549  0.829394
   0.321487  0.82945  0.19749
   0.78826  0.389045  0.191789
   0.372688  0.424752  0.115972
  -0.01882666  0.366055 -0.04382094
   0.09202879  0.167829  0.04729439
   0.583066  0.934771  0.606337
   0.511495  0.202505  0.503357
   0.555509  0.10424  0.29397
   0.644696  0.08843895 -0.100036
   0.884056  0.09741244  0.76446
   0.164294  1.05919  0.534694
   0.577229  0.221366  0.991339
   0.913924 -0.00606548  0.08027890
   0.597  0.820196  0.02205189
   0.135493  0.653396  0.993348
   0.650441  0.532  0.863611
   0.524818  0.650174  0.26764
  -0.111491  0.721963  0.18624
   0.105446  0.660179  0.680505
   0.334116  0.745343  0.718413
   0.320836  0.122035  0.115009
   0.152732  0.641938  0.482904
   0.895074  0.646499  0.446127
   0.444595  0.546388  0.542237
   0.596259  0.672199  0.59273
   0.475715  0.824991  0.505203
unknown system
           1
     4.163781   -0.343214    0.118212
     0.017800    4.844475    0.108596
     0.019919   -0.006519    4.891187
   S    H
   8  24
Direct configuration=   110
   0.806178  0.315865  0.609344
   0.249285  0.352473  0.357368
   0.296301  1.04368  0.777235
   0.852117  0.948066  0.371867
   0.828455  0.762954  0.868112
   0.339944  0.46158  0.827715
   0.309707  0.815707  0.184904
   0.804658  0.385534  0.181813
   0.404442  0.514727  0.123587
   0.00996727  0.412474 -0.08459798
   0.08635066  0.101653  0.02860732
   0.590982  0.948064  0.636632
   0.498105  0.193456  0.444601
   0.497144 -0.00615325  0.310663
   0.710802  0.05578406 -0.145263
   0.999581  0.19386  0.802097
   0.205768  0.912872  0.480536
   0.619728  0.128064  1.03131
   0.896684  0.121007  0.08386512
   0.565908  0.752154  0.03846091
   0.11594  0.726634  0.997271
   0.725452  0.388178  0.913078
   0.6006  0.672367  0.330079
  -0.148605  0.666404  0.180565
   0.04012210  0.567182  0.65608
   0.180635  0.741565  0.632928
   0.291905  0.188857  0.175116
   0.04358269  0.64164  0.410983
   0.821451  0.60513  0.466062
   0.519051  0.495692  0.541422
   0.725129  0.681575  0.625626
   0.408277  0.722261  0.529334
unknown system
           1
     4.187718   -0.369721    0.126500
     0.017826    4.843940    0.115609
     0.019955   -0.006531    4.900048
   S    H
   8  24
Direct configuration=   120
   0.792659  0.282166  0.599501
   0.232772  0.340991  0.340297
   0.314996  1.04919  0.757193
   0.853144  0.960115  0.374613
   0.815898  0.773632  0.872564
   0.36953  0.483498  0.816713
   0.278279  0.809915  0.189797
   0.814022  0.385584  0.178852
   0.465059  0.496407  0.12058
   0.08613141  0.432602 -0.02136909
   0.03823746 -0.02002465  0.04644269
   0.457625  0.84609  0.598107
   0.487204  0.164389  0.470979
   0.474526  0.107308  0.277253
   0.701458  0.02860541 -0.115358
   1.01828  0.132241  0.709888
   0.164968  0.973698  0.527299
   0.543886  0.05559669  1.07267
   0.959135  0.142079 -0.02207932
   0.531769  0.752159  0.03101481
   0.158566  0.675564  0.931981
   0.671319  0.310692  0.869176
   0.508132  0.763562  0.392844
  -0.187038  0.686322  0.226939
   0.06659387  0.493292  0.659455
   0.09054515  0.683676  0.538915
   0.250244  0.20015  0.103366
   0.09875808  0.625414  0.334388
   0.798527  0.604263  0.495464
   0.512311  0.504177  0.455812
   0.672752  0.772175  0.554985
   0.355324  0.684014  0.553483
unknown system
           1
     4.212424   -0.396502    0.133665
     0.017853    4.844220    0.121837
     0.020000   -0.006545    4.911063
   S    H
   8  24
Direct configuration=   130
   0.772939  0.268279  0.606659
   0.221863  0.326434  0.32406
   0.333465  1.03904  0.74331
   0.848609  0.978428  0.362162
   0.811337  0.782476  0.859682
   0.399104  0.492655  0.805753
   0.251451  0.819483  0.194853
   0.826744  0.394249  0.165
   0.510494  0.48124  0.119438
   0.04421514  0.439729 -0.07910308
  -0.123887 -0.01469991  0.06975575
   0.358951  0.821872  0.573784
   0.41641  0.194508  0.472398
   0.568689  0.174869  0.227129
   0.592205  0.06054016 -0.07471060
   0.918156  0.04517467  0.792703
   0.156142  0.986223  0.539952
   0.488825  0.05987023  1.09623
   1.07932  0.191947 -0.03175057
   0.58172  0.754559  0.09010045
   0.207991  0.749991  0.848612
   0.725446  0.269729  0.924466
   0.46481  0.796826  0.408777
  -0.258686  0.683157  0.290639
  -0.01370451  0.415149  0.774493
  -0.03886298  0.706444  0.570644
   0.234232  0.215102  0.00340339
   0.01550886  0.578226  0.469289
   0.740256  0.548055  0.568911
   0.492399  0.524697  0.389695
   0.64448  0.774294  0.585974
   0.162112  0.585382  0.560543
unknown system
           1
     4.236768   -0.422651    0.140125
     0.017881    4.844808    0.128321
     0.020053   -0.006562    4.923996
   S    H
   8  24
Direct configuration=   140
   0.767602  0.269047  0.622212
   0.212746  0.327696  0.303817
   0.337851  1.01549  0.730408
   0.837751  0.989883  0.337921
   0.812374  0.769043  0.842395
   0.40845  0.492551  0.79055
   0.226438  0.816475  0.198985
   0.826741  0.42251  0.14716
   0.43951  0.517571  0.06375914
   0.170286  0.608752 -0.02685578
  -0.220044  0.05686523  0.06630968
   0.259896  0.693207  0.598652
   0.457896  0.126347  0.454917
   0.597075  0.255274  0.292198
   0.487455  0.149398 -0.01443023
   0.892516  0.08744306  0.778555
   0.08742362  0.950901  0.514896
   0.449022  0.05030966  1.21896
   1.08946  0.109445 -0.02435353
   0.563297  0.732533  0.141112
   0.236462  0.792443  0.89512
   0.735805  0.210816  0.940339
   0.541884  0.811821  0.387801
  -0.123624  0.654218  0.316031
   0.08763712  0.424748  0.760831
  -0.02449104  0.797313  0.589405
   0.325107  0.23799  0.07989802
  -0.105693  0.629399  0.500185
   0.542029  0.54493  0.473827
   0.486712  0.571931  0.344078
   0.5695  0.882155  0.629217
   0.203352  0.532043  0.550193
unknown system
           1
     4.259262   -0.448163    0.145189
     0.017909    4.846204    0.133950
     0.020108   -0.006580    4.937457
   S    H
   8  24
Direct configuration=   150
   0.771049  0.286482  0.638119
[...]
   1.40858  0.612495  2.52617
   1.01673 -1.03662  0.778647
   1.22833  1.50839 -0.745547
   0.385208  0.500691  3.02596
  -1.68242  0.24508  2.34463
   1.71388  0.03894754  1.06813
   2.55516  1.5495  0.305337
  -0.316007 -0.339022  2.08308
   0.740228  1.31382  0.846368
  -0.240245  0.736441  0.896589
   2.46585  1.0836 -0.601915
  -0.980661 -1.55569  2.87955
unknown system
           1
     3.963937   -0.897206   -0.682795
     0.016170    5.193420   -0.597625
     0.019790   -0.006477    4.859548
   S    H
   8  24
Direct configuration=  2190
   0.534279  0.409609  0.660024
  -0.00584805  0.660301  0.667844
  -0.49725  0.908097  0.74391
   0.735997  1.39774  0.185315
   0.130896  1.08904  1.08732
   0.108888  0.746847  1.28681
   0.04621759  1.12217  0.497066
   0.578795  0.911942  0.244472
   0.07815483  0.672799 -0.00512911
   2.05846  1.39053 -1.48098
  -0.251457  0.188864  0.8848
   0.407836  0.743265 -0.00733279
   0.750805 -0.948292  1.63003
   0.05216755  0.266656  0.826248
   0.409596  0.573124 -0.14244
   0.755124 -0.734672  1.51774
  -0.291217  1.76926  0.431646
  -1.59229  0.168498  1.78292
   0.424113 -1.72862 -0.997801
   0.106526  0.402977 -0.00062198
   1.3859  0.625059  2.52072
   1.02807 -1.07146  0.821682
   1.29833  1.45268 -0.757475
   0.370869  0.502214  3.10271
  -1.61651  0.327185  2.31904
   1.64833  0.142002  1.07224
   2.60662  1.57204  0.380997
  -0.30952 -0.339307  2.02378
   0.808624  1.44612  0.939999
  -0.210071  0.840893  0.916767
   2.43826  1.05384 -0.529525
  -0.880413 -1.5186  2.83726
unknown system
           1
     3.966501   -0.909795   -0.673639
     0.016238    5.181030   -0.570057
     0.019762   -0.006467    4.852683
   S    H
   8  24
Direct configuration=  2200
   0.547844  0.411604  0.661486
   0.00073435  0.651037  0.676156
  -0.488254  0.912787  0.740502
   0.763657  1.41691  0.189384
   0.124742  1.07782  1.10677
   0.122976  0.770345  1.29023
   0.05619514  1.11943  0.495079
   0.598208  0.926837  0.245786
   0.08472281  0.6898 -0.00971413
   2.09167  1.42467 -1.5123
  -0.146786  0.250002  0.862409
   0.417433  0.652494  0.06184143
   0.854916 -0.975985  1.73782
   0.01214848  0.262399  0.762347
   0.479886  0.608026 -0.125729
   0.713355 -0.729957  1.47923
  -0.305233  1.77102  0.479687
  -1.61269  0.179511  1.81518
   0.41875 -1.67836 -1.00497
   0.179572  0.378662 -0.00124024
   1.38531  0.64222  2.46324
   1.15609 -1.02409  0.8185
   1.11295  1.42059 -0.693818
   0.288658  0.502985  3.14919
  -1.60642  0.293936  2.29932
   1.62599  0.08478320  1.04002
   2.63159  1.59305  0.369251
  -0.237789 -0.257369  2.10253
   0.895298  1.51308  0.931235
  -0.218912  0.861493  0.944244
   2.53554  1.09275 -0.56441
  -0.796431 -1.601  2.73491
unknown system
           1
     3.968010   -0.918833   -0.665285
     0.016310    5.168380   -0.541421
     0.019736   -0.006459    4.846217
   S    H
   8  24
Direct configuration=  2210
   0.556598  0.412582  0.661154
   0.00553853  0.654874  0.683663
  -0.488259  0.911075  0.728456
   0.785884  1.4298  0.187388
   0.124038  1.07719  1.10968
   0.153615  0.781655  1.29955
   0.07170403  1.1196  0.51034
   0.618792  0.943778  0.252978
   0.160205  0.697381 -0.01433503
   2.21826  1.52044 -1.4249
  -0.198865  0.207578  0.875037
   0.458076  0.629651  0.02773704
   0.885889 -1.01489  1.75923
  -0.07942334  0.281176  0.754765
   0.596379  0.632887 -0.115077
   0.851962 -0.70867  1.415
  -0.341178  1.77652  0.520912
  -1.5271  0.185699  1.84535
   0.483046 -1.66737 -0.988956
   0.220146  0.424419 -0.04430396
   1.38696  0.558007  2.40094
   1.18566 -0.973336  0.845983
   1.14609  1.36962 -0.675772
   0.245334  0.463758  3.15175
  -1.56528  0.276486  2.27635
   1.67739  0.128842  1.02786
   2.57018  1.61666  0.273703
  -0.206337 -0.267305  2.04928
   0.919917  1.47656  0.941277
  -0.140139  0.780577  0.885816
   2.49452  1.15345 -0.483101
  -0.74689 -1.60565  2.8099
unknown system
           1
     3.969066   -0.925579   -0.657347
     0.016388    5.156039   -0.511359
     0.019710   -0.006450    4.839866
   S    H
   8  24
Direct configuration=  2220
   0.557186  0.407902  0.651444
   0.01032845  0.660982  0.683719
  -0.489649  0.906443  0.721556
   0.79991  1.43938  0.188393
   0.12354  1.09047  1.09647
   0.18113  0.770952  1.3124
   0.07846786  1.12181  0.541251
   0.634226  0.954436  0.255932
   0.261237  0.7577  0.03305581
   2.26919  1.53116 -1.35837
  -0.128221  0.127029  0.894062
   0.470809  0.674322  0.00279540
   0.865631 -1.07  1.64287
  -0.122759  0.277361  0.72945
   0.547794  0.571028 -0.118401
   0.906026 -0.649079  1.48459
  -0.374717  1.71235  0.52394
  -1.46338  0.215539  1.87419
   0.411528 -1.67391 -0.977213
   0.223183  0.432835 -0.02787740
   1.45041  0.495369  2.36795
   1.25381 -0.942726  0.835686
   1.21788  1.41902 -0.64099
   0.22719  0.434822  3.1683
  -1.49865  0.26151  2.27023
   1.70288  0.143099  1.08449
   2.64643  1.65098  0.280541
  -0.175828 -0.267793  2.08341
   0.973535  1.46688  0.917774
  -0.158927  0.847725  0.918177
   2.59957  1.072 -0.485495
  -0.84973 -1.72889  2.78922
unknown system
           1
     3.970511   -0.930854   -0.649126
     0.016467    5.143756   -0.481228
     0.019685   -0.006442    4.833720
   S    H
   8  24
Direct configuration=  2230
   0.560141  0.398963  0.640317
   0.02360959  0.670937  0.696652
  -0.494728  0.901107  0.724336
   0.815026  1.44345  0.178643
   0.125917  1.10032  1.08479
   0.196511  0.75816  1.32287
   0.09688284  1.13316  0.562652
   0.645995  0.950912  0.250384
   0.07852741  0.757543 -0.04152060
   2.25078  1.48742 -1.32608
  -0.183604  0.143491  0.872922
   0.417845  0.721177  0.04428206
   0.867668 -1.13359  1.59569
  -0.188246  0.254787  0.761057
   0.583897  0.552558 -0.06084381
   0.957208 -0.662751  1.43161
  -0.487265  1.68954  0.519776
  -1.4341  0.248487  1.89694
   0.414522 -1.59699 -0.935454
   0.27936  0.551557 -0.06456199
   1.5149  0.519735  2.32692
   1.34758 -0.99142  0.94234
   1.22562  1.42287 -0.611455
   0.304112  0.446297  3.24331
  -1.55747  0.198518  2.32551
   1.62833  0.142021  1.0686
   2.75725  1.73928  0.384576
  -0.190101 -0.289552  2.02543
   1.00161  1.46233  0.978775
  -0.228575  0.842576  0.921806
   2.61646  1.12354 -0.443522
  -0.859407 -1.70204  2.83495
unknown system
           1
     3.973075   -0.934731   -0.639302
     0.016548    5.131383   -0.450415
     0.019664   -0.006435    4.828478
   S    H
   8  24
Direct configuration=  2240
   0.574592  0.399025  0.631088
   0.03218615  0.669818  0.702845
  -0.507223  0.893822  0.731552
   0.825144  1.4431  0.170666
   0.120031  1.10881  1.08299
   0.203994  0.755666  1.32971
   0.116784  1.14438  0.581958
   0.666976  0.943171  0.246008
  -0.00823914  0.766162  0.04203260
   2.21788  1.50068 -1.29716
  -0.193243  0.09912864  0.900784
   0.300994  0.777588  0.05640985
   0.881881 -1.03547  1.70172
  -0.08372172  0.307056  0.752009
   0.570061  0.57697 -0.133537
   0.820634 -0.740998  1.36548
  -0.521384  1.61132  0.503548
  -1.55621  0.248312  1.86918
   0.378874 -1.54453 -0.931721
   0.441797  0.602356  0.01205622
   1.68304  0.593347  2.36793
   1.32775 -1.02559  0.959514
   1.20764  1.3645 -0.612079
   0.28784  0.419245  3.23848
  -1.63688  0.10973  2.29866
   1.59772  0.212733  1.05936
   2.76099  1.77493  0.446454
  -0.277731 -0.312261  2.08512
   1.03177  1.41946  0.937063
  -0.256564  0.819721  0.926344
   2.62917  1.11551 -0.499975
  -0.75403 -1.67595  2.91841
unknown system
           1
     3.977122   -0.935449   -0.628179
     0.016637    5.119580   -0.418340
     0.019648   -0.006430    4.824648
   S    H
   8  24
Direct configuration=  2250
   0.603101  0.390731  0.613527
   0.02289713  0.660585  0.699944
  -0.50607  0.901334  0.733826
   0.826083  1.44196  0.157276
   0.09431838  1.11555  1.08974
   0.204282  0.74892  1.32937
   0.122119  1.14525  0.59018
   0.695566  0.937699  0.245739
  -0.02927002  0.792047  0.00620737
   2.20189  1.43827 -1.30763
  -0.187006  0.156014  0.91678
   0.223483  0.67596 -0.02191018
   0.89268 -1.02627  1.73719
  -0.125806  0.230695  0.67566
   0.54152  0.636412 -0.20964
   0.770885 -0.69533  1.38779
  -0.596357  1.59791  0.421209
  -1.4114  0.220598  1.7981
   0.337601 -1.47497 -0.884581
   0.449141  0.635273 -0.05496824
   1.69752  0.594733  2.37575
   1.28203 -1.03637  0.938807
   1.11633  1.31775 -0.652958
   0.371126  0.424688  3.26556
  -1.57982  0.141121  2.28651
   1.51289  0.242907  1.04456
   2.73785  1.80682  0.560127
  -0.335047 -0.339153  2.16226
   0.947957  1.47694  0.90088
  -0.191164  0.770817  0.898762
   2.58895  1.08331 -0.497603
  -0.756141 -1.66356  2.96737